ts_ms,av_state,av_timestamp,navSensors.imu[0].accel_x,navSensors.imu[0].accel_y,navSensors.imu[0].accel_z,navSensors.imu[0].gyro_x,navSensors.imu[0].gyro_y,navSensors.imu[0].gyro_z,navSensors.imu[0].temperature,navSensors.imu[0].timestamp_us,navSensors.imu[1].accel_x,navSensors.imu[1].accel_y,navSensors.imu[1].accel_z,navSensors.imu[1].gyro_x,navSensors.imu[1].gyro_y,navSensors.imu[1].gyro_z,navSensors.imu[1].temperature,navSensors.imu[1].timestamp_us,navSensors.imu[2].accel_x,navSensors.imu[2].accel_y,navSensors.imu[2].accel_z,navSensors.imu[2].gyro_x,navSensors.imu[2].gyro_y,navSensors.imu[2].gyro_z,navSensors.imu[2].temperature,navSensors.imu[2].timestamp_us,navSensors.imu[3].accel_x,navSensors.imu[3].accel_y,navSensors.imu[3].accel_z,navSensors.imu[3].gyro_x,navSensors.imu[3].gyro_y,navSensors.imu[3].gyro_z,navSensors.imu[3].temperature,navSensors.imu[3].timestamp_us,navSensors.bmp.temperature,navSensors.bmp.pressure,navSensors.bmp_aux.temperature,navSensors.bmp_aux.pressure,navSensors.bmp_3.temperature,navSensors.bmp_3.pressure,navSensors.bmp_4.temperature,navSensors.bmp_4.pressure,navigationData.position_kalman.x,navigationData.position_kalman.y,navigationData.position_kalman.z,navigationData.speed.x,navigationData.speed.y,navigationData.speed.z,navigationData.accel.x,navigationData.accel.y,navigationData.accel.z,navigationData.attitude.x,navigationData.attitude.y,navigationData.attitude.z,navigationData.course,navigationData.altitude,navigationData.baro.temperature,navigationData.baro.pressure,event.command_updated,event.calibrated,event.dpr_eth_ready,event.dpr_eth_pressure_ok,event.dpr_lox_ready,event.dpr_lox_pressure_ok,event.prb_ready,event.trb_ready,event.ignited,event.seperated,event.chute_unreefed,event.ignition_failed,event.catastrophic_failure,event.timer_launch_delay,event.cut_off_detected,event.apogee_detected,event.touchdown_detected,event.vertical_acc_hold,event.imu_liftoff_detected
10759,INIT,10759,0,0,0,0,0,0,0,0,0,0,0,0,0,0,0,0,0,0,0,0,0,0,0,0,0,0,0,0,0,0,0,0,0,0,0,0,0,0,0,0,0,0,0,0,0,0,0,0,0,0,0,0,0,0,0,0,0,0,0,0,0,0,0,0,0,0,0,0,0,0,0,0,0,ACC_HOLD_NOT_ELAPSED,0
10782,INIT,10782,-0.489614,0.0131681,-9.5385,0.00399474,0.00253,-0.00213053,301.525,10759367,-0.415394,-0.181959,-9.62828,-0.00732369,-0.000798948,0.0117179,301.837,10759377,-0.477643,-0.0981623,-9.6642,-0.0122505,0.0115848,0.01265,303.587,10759378,-0.398635,-0.0143652,-9.79468,-0.00266316,-0.00506001,-0.00466053,299.962,10759379,0,0,0,0,0,0,0,0,0,0,0,0,0,0,-0.398635,-0.0143652,-9.79468,0,0,0,0,-0,0,0,0,0,0,0,0,0,0,0,0,0,0,0,0,0,0,0,0,ACC_HOLD_NOT_ELAPSED,0
11629,INIT,11629,-0.531513,-0.183156,-9.60913,-0.00119842,-0.000932106,0.00812264,301.587,11661509,-0.457293,-0.122104,-9.57561,-0.00652474,0.00279632,-0.00133158,302.025,11668831,-0.559046,-0.12809,-9.56244,-0.00346211,-0.00492685,0.000133158,303.712,11666456,-0.471658,-0.134075,-9.64744,-0.00599211,-0.000798948,-0.00226369,299.962,11649971,34.1876,98004.9,33.5596,98012.1,34.1849,98030,34.2939,98032.1,0,0,0,0,0,0,-0.471658,-0.134075,-9.64744,0,0,0,0,-0,0,0,0,0,0,0,0,0,0,0,0,0,0,0,0,0,0,0,0,ACC_HOLD_NOT_ELAPSED,0
11645,INIT,11645,-0.409408,-0.0993594,-9.54927,0.00346211,0.00639159,0.00319579,301.837,11680965,-0.505177,-0.140061,-9.52892,-0.0057258,-0.00439422,-0.00585895,302.275,11687662,-0.490811,-0.0646434,-9.64744,0.00372843,0.00479369,0.0138484,303.65,11684506,-0.399832,-0.129287,-9.68335,-0.0015979,0.00292948,-0.00239685,300.025,11665498,34.1876,98004.9,33.5596,98012.1,34.1849,98030,34.2939,98032.1,0,0,0,0,0,0,-0.464475,-0.0694318,-9.71567,0,0,0,0,-0,0,0,0,0,0,0,0,0,0,0,0,0,0,0,0,0,0,0,0,ACC_HOLD_NOT_ELAPSED,0
11661,INIT,11661,-0.493206,-0.0969652,-9.60793,-0.00253,0.0082558,-0.00585895,301.9,11696035,-0.544681,-0.142455,-9.56124,-0.00972054,0.0066579,0.0137153,301.65,11703044,-0.430956,-0.217872,-9.70011,0.00066579,0.00346211,0.00253,303.775,11699732,-0.397437,-0.143652,-9.77553,0.00705738,0.00599211,0.00772317,299.837,11678620,34.1876,98004.9,33.5596,98012.1,34.1849,98030,34.2939,98032.1,0,0,0,0,0,0,-0.464475,-0.0694318,-9.71567,0,0,0,0,-0,0,0,0,0,0,0,0,0,0,0,0,0,0,0,0,0,0,0,0,ACC_HOLD_NOT_ELAPSED,0
11677,INIT,11677,-0.45011,-0.166397,-9.60195,0.0105195,0.00266316,0.00625843,301.837,11710668,-0.527921,-0.154426,-9.53012,-0.00519316,0.000932106,0.00266316,301.962,11717834,-0.483629,-0.216675,-9.62708,0.00972054,-0.00253,-0.00133158,303.9,11714521,-0.447716,-0.160412,-9.71447,-0.00359527,-0.00319579,-0.000932106,299.962,11691461,34.1876,98004.9,33.5596,98012.1,34.1849,98030,34.2939,98032.1,0,0,0,0,0,0,-0.464475,-0.0694318,-9.71567,0,0,0,0,-0,0,0,0,0,0,0,0,0,0,0,0,0,0,0,0,0,0,0,0,ACC_HOLD_NOT_ELAPSED,0
11693,INIT,11693,-0.448913,-0.0993594,-9.59476,0.00639159,-0.0111853,0.00625843,301.837,11725802,-0.543484,-0.0921768,-9.55646,-0.00452737,-0.00838896,-0.00213053,302.025,11733124,-0.416591,-0.107739,-9.62948,0.00439422,-0.000399474,0.0143811,303.775,11729811,-0.398635,-0.174777,-9.73482,0.0041279,0.00426106,0,299.962,11704870,34.1876,98004.9,33.5596,98012.1,34.1849,98030,34.2939,98032.1,0,0,0,0,0,0,-0.464475,-0.0694318,-9.71567,0,0,0,0,-0,0,0,0,0,0,0,0,0,0,0,0,0,0,0,0,0,0,0,0,ACC_HOLD_NOT_ELAPSED,0
11709,INIT,11709,-0.439336,-0.0897826,-9.59117,0.0057258,-0.00346211,0.00439422,301.837,11740310,-0.536301,-0.117316,-9.58998,-0.0117179,0.00066579,-0.00559264,302.087,11747789,-0.51595,-0.148441,-9.68095,-0.00066579,0.00545948,-0.0082558,303.587,11744476,-0.407014,-0.120907,-9.70969,-0.000133158,0.00266316,-0.00119842,299.962,11717523,34.1456,98003.5,33.5315,98013.3,34.1475,98024.7,34.2567,98029.2,0,0,0,0,0,0,-0.464475,-0.0694318,-9.71567,0,0,0,0,-0,0,0,0,0,0,0,0,0,0,0,0,0,0,0,0,0,0,0,0,ACC_HOLD_NOT_ELAPSED,0
11725,INIT,11725,-0.411803,-0.0682347,-9.67018,-0.00186421,0.00106526,0.0127832,301.775,11755380,-0.374693,-0.132878,-9.7025,-0.00852212,0.00492685,-0.00798948,301.837,11763171,-0.460884,-0.0969652,-9.68095,0.00705738,0.000399474,-0.00386158,303.587,11759702,-0.438139,-0.205901,-9.74081,0.00253,0.00612527,0.0115848,299.962,11730676,34.1456,98003.5,33.5315,98013.3,34.1475,98024.7,34.2567,98029.2,0,0,0,0,0,0,-0.464475,-0.0694318,-9.71567,0,0,0,0,-0,0,0,0,0,0,0,0,0,0,0,0,0,0,0,0,0,0,0,0,ACC_HOLD_NOT_ELAPSED,0
11741,INIT,11741,-0.494403,-0.0059855,-9.58758,0.0057258,-0.00745685,-0.00146474,301.837,11770294,-0.520739,-0.130484,-9.58279,-0.00852212,-0.00452737,0.0125169,301.65,11778241,-0.531513,-0.113725,-9.60075,0.00798948,0.0015979,0.00972054,303.9,11774772,-0.434548,-0.154426,-9.74081,-0.00932106,0.000532632,-0.00346211,299.837,11743766,34.1456,98003.5,33.5315,98013.3,34.1475,98024.7,34.2567,98029.2,0,0,0,0,0,0,-0.464475,-0.0694318,-9.71567,0,0,0,0,-0,0,0,0,0,0,0,0,0,0,0,0,0,0,0,0,0,0,0,0,ACC_HOLD_NOT_ELAPSED,0
11757,INIT,11757,-0.393846,-0.130484,-9.52294,0.00186421,-0.00306264,0.00186421,301.837,11784834,-0.469264,-0.167594,-9.58638,-0.01012,0.00519316,0.00639159,301.837,11792938,-0.497994,-0.141258,-9.61511,-0.00439422,-0.000798948,-0.01012,303.712,11789625,-0.454898,-0.138864,-9.64504,-0.0125169,-0.00452737,0.00332895,299.837,11757053,34.1363,98007.9,33.5174,98011.3,34.1428,98030.3,34.2567,98034,0,0,0,0,0,0,-0.464475,-0.0694318,-9.71567,0,0,0,0,-0,0,0,0,0,0,0,0,0,0,0,0,0,0,0,0,0,0,0,0,ACC_HOLD_NOT_ELAPSED,0
11773,INIT,11773,-0.420182,-0.059855,-9.54808,0.00292948,0.00066579,0.00625843,302.025,11799936,-0.519542,-0.106542,-9.59476,0.000932106,0.00639159,0.000266316,302.087,11808196,-0.463278,-0.143652,-9.663,-0.0137153,0.00798948,-0.0122505,303.712,11804727,-0.447716,-0.132878,-9.81623,-0.00279632,-0.000798948,-0.000266316,299.837,11773024,34.1363,98007.9,33.5174,98011.3,34.1428,98030.3,34.2567,98034,0,0,0,0,0,0,-0.464475,-0.0694318,-9.71567,0,0,0,0,-0,0,0,0,0,0,0,0,0,0,0,0,0,0,0,0,0,0,0,0,ACC_HOLD_NOT_ELAPSED,0
11789,INIT,11789,-0.488417,-0.138864,-9.64863,-0.00852212,0.0015979,-0.00452737,301.775,11815006,-0.468066,-0.126893,-9.63187,-0.000798948,0.000133158,0.00173105,301.9,11823422,-0.543484,-0.123301,-9.73363,0.0107858,0,-0.00226369,303.775,11819953,-0.395043,-0.136469,-9.73842,0.00772317,0.000798948,0.000532632,299.962,11789381,34.1363,98007.9,33.5174,98011.3,34.1428,98030.3,34.2567,98034,0,0,0,0,0,0,-0.464475,-0.0694318,-9.71567,0,0,0,0,-0,0,0,0,0,0,0,0,0,0,0,0,0,0,0,0,0,0,0,0,ACC_HOLD_NOT_ELAPSED,0
11805,INIT,11805,-0.415394,-0.0754174,-9.68694,0.00506001,0.00386158,0.00599211,301.65,11829483,-0.545878,-0.15682,-9.55646,-0.00785633,-0.01265,-0.0041279,301.837,11838055,-0.465672,-0.113725,-9.60314,-0.00173105,-0.00239685,-0.0131826,303.712,11834586,-0.439336,-0.120907,-9.67856,0.00372843,0.00146474,0.00386158,299.962,11804834,34.1363,98007.9,33.5174,98011.3,34.1428,98030.3,34.2567,98034,0,0,0,0,0,0,-0.464475,-0.0694318,-9.71567,0,0,0,0,-0,0,0,0,0,0,0,0,0,0,0,0,0,0,0,0,0,0,0,0,ACC_HOLD_NOT_ELAPSED,0
11821,INIT,11821,-0.454898,-0.0969652,-9.63666,0.00146474,-0.0181095,-0.000798948,301.775,11844336,-0.465672,-0.1652,-9.68215,-0.00865527,-0.000266316,-0.00532632,301.962,11853220,-0.434548,-0.122104,-9.60434,-0.00705738,0.00759001,0.00133158,303.9,11849752,-0.444124,-0.175974,-9.72405,-0.00133158,0.00452737,-0.00972054,299.837,11821037,34.1316,98006.2,33.5034,98011.6,34.1334,98028.8,34.2474,98033.1,0,0,0,0,0,0,-0.464475,-0.0694318,-9.71567,0,0,0,0,-0,0,0,0,0,0,0,0,0,0,0,0,0,0,0,0,0,0,0,0,ACC_HOLD_NOT_ELAPSED,0
11837,INIT,11837,-0.505177,-0.0706289,-9.62948,-0.00386158,-0.00306264,0.00226369,301.587,11859562,-0.525527,-0.132878,-9.58998,0.000266316,0.00186421,0.00253,301.962,11868603,-0.538695,-0.152032,-9.72046,0.000399474,0.00332895,-0.000798948,303.712,11865134,-0.329203,-0.113725,-9.74201,-0.00199737,0.00292948,-0.00519316,299.837,11837190,34.1316,98006.2,33.5034,98011.6,34.1334,98028.8,34.2474,98033.1,0,0,0,0,0,0,-0.464475,-0.0694318,-9.71567,0,0,0,0,-0,0,0,0,0,0,0,0,0,0,0,0,0,0,0,0,0,0,0,0,ACC_HOLD_NOT_ELAPSED,0
11853,INIT,11853,-0.456095,-0.122104,-9.55765,-0.00492685,0.00372843,-0.00759001,301.712,11874475,-0.519542,-0.0730232,-9.64863,-0.00519316,-0.00173105,0.0103863,302.025,11883672,-0.477643,-0.131681,-9.65342,-0.000266316,0.0117179,-0.00279632,303.775,11880204,-0.454898,-0.180762,-9.72285,-0.00452737,0.000266316,0.00492685,299.837,11853398,34.1316,98006.2,33.5034,98011.6,34.1334,98028.8,34.2474,98033.1,0,0,0,0,0,0,-0.464475,-0.0694318,-9.71567,0,0,0,0,-0,0,0,0,0,0,0,0,0,0,0,0,0,0,0,0,0,0,0,0,ACC_HOLD_NOT_ELAPSED,0
11869,INIT,11869,-0.435745,-0.113725,-9.63666,-0.00532632,-0.00133158,-0.00519316,301.65,11888952,-0.468066,-0.123301,-9.61033,-0.00226369,0.000133158,0.00532632,302.025,11898462,-0.503979,-0.214281,-9.62469,-0.0041279,0.00732369,0.0167779,303.9,11894837,-0.476446,-0.105345,-9.70609,0.00213053,-0.00692422,0.00359527,299.9,11869017,34.1316,98006.2,33.5034,98011.6,34.1334,98028.8,34.2474,98033.1,0,0,0,0,0,0,-0.464475,-0.0694318,-9.71567,0,0,0,0,-0,0,0,0,0,0,0,0,0,0,0,0,0,0,0,0,0,0,0,0,ACC_HOLD_NOT_ELAPSED,0
11885,INIT,11885,-0.444124,-0.0251391,-9.55406,0.00292948,-0.00332895,0.00106526,301.587,11903962,-0.468066,-0.141258,-9.5397,-0.000266316,0.00066579,-0.00452737,301.837,11913627,-0.542287,-0.155623,-9.58998,-0.000133158,0.00279632,-0.0179763,303.9,11910002,-0.470461,-0.138864,-9.75039,0.00066579,0.00625843,0.000266316,300.4,11885066,34.1316,98006.8,33.5081,98012.7,34.1241,98027.9,34.2381,98028.7,0,0,0,0,0,0,-0.464475,-0.0694318,-9.71567,0,0,0,0,-0,0,0,0,0,0,0,0,0,0,0,0,0,0,0,0,0,0,0,0,ACC_HOLD_NOT_ELAPSED,0
11901,INIT,11901,-0.500388,-0.155623,-9.63307,0.00679106,-0.00612527,0.0127832,301.712,11919031,-0.538695,-0.191536,-9.5373,-0.00266316,0.00306264,0.00359527,302.15,11928853,-0.45011,-0.155623,-9.63546,-0.00426106,-0.00186421,-0.00745685,303.9,11925228,-0.389058,-0.136469,-9.73004,-0.000266316,-0.00506001,-0.000932106,299.837,11901144,34.1316,98006.8,33.5081,98012.7,34.1241,98027.9,34.2381,98028.7,0,0,0,0,0,0,-0.464475,-0.0694318,-9.71567,0,0,0,0,-0,0,0,0,0,0,0,0,0,0,0,0,0,0,0,0,0,0,0,0,ACC_HOLD_NOT_ELAPSED,0
11917,INIT,11917,-0.493206,-0.155623,-9.64025,0.00559264,0.00812264,0.0162453,301.712,11933664,-0.51595,-0.148441,-9.55406,0.00372843,0.00306264,-0.0015979,302.15,11943643,-0.543484,-0.117316,-9.65222,-0.00719053,0.00852212,0.00612527,303.775,11940018,-0.348356,-0.117316,-9.72285,0.00745685,0.00266316,-0.00226369,299.837,11917053,34.1316,98006.8,33.5081,98012.7,34.1241,98027.9,34.2381,98028.7,0,0,0,0,0,0,-0.464475,-0.0694318,-9.71567,0,0,0,0,-0,0,0,0,0,0,0,0,0,0,0,0,0,0,0,0,0,0,0,0,ACC_HOLD_NOT_ELAPSED,0
11933,INIT,11933,-0.484826,-0.0873884,-9.66779,0.0130495,0.00745685,-0.00239685,301.587,11948578,-0.438139,-0.047884,-9.55526,0.00785633,-0.00239685,0.00612527,302.025,11958712,-0.472855,-0.159214,-9.64265,-0.000532632,-0.00119842,-0.00559264,303.775,11955087,-0.453701,-0.131681,-9.75039,-0.00545948,0.00865527,0.00759001,299.837,11933090,34.1316,98006.8,33.5081,98012.7,34.1241,98027.9,34.2381,98028.7,0,0,0,0,0,0,-0.464475,-0.0694318,-9.71567,0,0,0,0,-0,0,0,0,0,0,0,0,0,0,0,0,0,0,0,0,0,0,0,0,ACC_HOLD_NOT_ELAPSED,0
11949,INIT,11949,-0.456095,-0.110133,-9.55047,0.00679106,0.00372843,-0.00426106,301.462,11963587,-0.523133,-0.0275333,-9.56124,-0.0110521,-0.00426106,-0.00719053,301.837,11973878,-0.512359,-0.147243,-9.68574,0.000133158,-0.00253,-0.00372843,303.775,11970253,-0.505177,-0.0837971,-9.65342,-0.00599211,-0.000399474,0.00639159,300.025,11948995,34.127,98005.8,33.5174,98016,34.1287,98027.8,34.2381,98032.2,0,0,0,0,0,0,-0.464475,-0.0694318,-9.71567,0,0,0,0,-0,0,0,0,0,0,0,0,0,0,0,0,0,0,0,0,0,0,0,0,ACC_HOLD_NOT_ELAPSED,0
11965,INIT,11965,-0.459687,-0.148441,-9.50139,0.0110521,-0.00386158,0.00292948,301.525,11978657,-0.489614,-0.20231,-9.61511,-0.00266316,-0.00519316,-0.00918791,301.837,11989104,-0.474052,-0.160412,-9.65582,-0.0117179,0.00679106,0.0041279,303.65,11985479,-0.378284,-0.122104,-9.68694,-0.00532632,-0.00798948,-0.00439422,299.962,11965338,34.127,98005.8,33.5174,98016,34.1287,98027.8,34.2381,98032.2,0,0,0,0,0,0,-0.464475,-0.0694318,-9.71567,0,0,0,0,-0,0,0,0,0,0,0,0,0,0,0,0,0,0,0,0,0,0,0,0,ACC_HOLD_NOT_ELAPSED,0
11981,INIT,11981,-0.468066,-0.104148,-9.58638,-0.00625843,0.00253,0.0130495,301.775,11993134,-0.551863,-0.140061,-9.55047,-0.00479369,0.00492685,0.00133158,301.837,12003893,-0.505177,-0.118513,-9.64504,0.000133158,0.00945422,0.00705738,303.775,12000268,-0.471658,-0.0957681,-9.73961,-0.00625843,0.00119842,0.000532632,299.962,11981040,34.127,98005.8,33.5174,98016,34.1287,98027.8,34.2381,98032.2,0,0,0,0,0,0,-0.464475,-0.0694318,-9.71567,0,0,0,0,-0,0,0,0,0,0,0,0,0,0,0,0,0,0,0,0,0,0,0,0,ACC_HOLD_NOT_ELAPSED,0
11997,INIT,11997,-0.429759,-0.142455,-9.50378,-0.00253,0.00519316,0.00599211,301.837,12008204,-0.500388,-0.140061,-9.62828,-0.00386158,-0.000532632,0.0195742,301.837,12019119,-0.508768,-0.135272,-9.58399,0.00133158,0.00426106,-0.000266316,303.587,12015338,-0.420182,-0.141258,-9.73961,0.00652474,-0.00346211,0.0110521,300.025,11997208,34.127,98005.8,33.5174,98016,34.1287,98027.8,34.2381,98032.2,0,0,0,0,0,0,-0.464475,-0.0694318,-9.71567,0,0,0,0,-0,0,0,0,0,0,0,0,0,0,0,0,0,0,0,0,0,0,0,0,ACC_HOLD_NOT_ELAPSED,0
12013,INIT,12013,-0.475249,-0.0335188,-9.56244,0.0057258,0.00519316,0.00599211,301.837,12023213,-0.506374,-0.142455,-9.55406,0.00266316,-0.00878843,0.00932106,301.962,12034285,-0.474052,-0.158017,-9.58758,0.00319579,0.00439422,0.00705738,303.775,12030504,-0.407014,-0.112527,-9.63427,-0.00066579,0.00199737,0.00292948,299.962,12013161,34.1363,98008.5,33.5034,98013.4,34.1287,98029,34.2474,98032.5,0,0,0,0,0,0,-0.464475,-0.0694318,-9.71567,0,0,0,0,-0,0,0,0,0,0,0,0,0,0,0,0,0,0,0,0,0,0,0,0,ACC_HOLD_NOT_ELAPSED,0
12029,INIT,12029,-0.403423,-0.106542,-9.60314,0.00386158,0.00426106,0.00186421,301.587,12037690,-0.490811,-0.137667,-9.60673,-0.00705738,-0.00332895,-0.00692422,301.9,12049074,-0.4956,-0.0873884,-9.65222,0.00279632,-0.0117179,0.0125169,303.837,12045293,-0.523133,-0.105345,-9.67018,-0.00772317,-0.00133158,-0.00732369,299.962,12028826,34.1363,98008.5,33.5034,98013.4,34.1287,98029,34.2474,98032.5,0,0,0,0,0,0,-0.464475,-0.0694318,-9.71567,0,0,0,0,-0,0,0,0,0,0,0,0,0,0,0,0,0,0,0,0,0,0,0,0,ACC_HOLD_NOT_ELAPSED,0
12045,INIT,12045,-0.433351,-0.0275333,-9.64744,0.00253,-0.0015979,0.0066579,301.837,12052760,-0.594959,-0.071826,-9.54449,-0.00625843,0.00332895,0.00639159,301.962,12064144,-0.452504,-0.187945,-9.63427,0.00173105,0.00452737,-0.00399474,303.712,12060363,-0.48722,-0.112527,-9.6642,-0.00466053,-0.0066579,0.00466053,299.775,12045078,34.1363,98008.5,33.5034,98013.4,34.1287,98029,34.2474,98032.5,0,0,0,0,0,0,-0.464475,-0.0694318,-9.71567,0,0,0,0,-0,0,0,0,0,0,0,0,0,0,0,0,0,0,0,0,0,0,0,0,ACC_HOLD_NOT_ELAPSED,0
12061,INIT,12061,-0.391452,-0.0993594,-9.61631,-0.00612527,-0.00972054,-0.00492685,301.775,12066559,-0.511162,-0.126893,-9.50857,-0.01265,-0.00905475,-0.00639159,302.025,12078412,-0.525527,-0.106542,-9.68574,-0.00386158,-0.00532632,-0.00639159,303.712,12074943,-0.481235,-0.184354,-9.70729,0.0041279,0.00332895,-0.00239685,299.837,12060531,34.1363,98008.5,33.5034,98013.4,34.1287,98029,34.2474,98032.5,0,0,0,0,0,0,-0.481235,-0.184354,-9.70729,0,0,0,0,-0,0,0,0,0,0,0,0,0,0,0,0,0,0,0,0,0,0,0,0,ACC_HOLD_NOT_ELAPSED,0
12081,INIT,12081,-0.464475,-0.107739,-9.63906,0.00292948,0.000133158,-0.00612527,301.587,12082056,-0.472855,-0.154426,-9.63906,-0.0121174,0.00625843,0.00918791,302.275,12094690,-0.503979,-0.136469,-9.72285,-0.000399474,-0.00319579,0.0106526,303.9,12091534,-0.463278,-0.0873884,-9.64025,0.00625843,-0.00745685,0,300.087,12078159,34.1223,98002.3,33.5034,98012.2,34.1287,98026.6,34.2428,98035.7,0,0,0,0,0,0,-0.463278,-0.0873884,-9.64025,0,0,0,0,-0,0,0,0,0,0,0,0,0,0,0,0,0,0,0,0,0,0,0,0,ACC_HOLD_NOT_ELAPSED,0
12105,INIT,12105,-0.442927,-0.0873884,-9.63068,0.00106526,-0.00239685,-0.00705738,301.587,12103991,-0.509965,-0.0742203,-9.64983,-0.0066579,0.00066579,0.00199737,301.9,12117250,-0.497994,-0.147243,-9.6223,-0.00372843,0.00186421,0.00998685,303.837,12114563,-0.45849,-0.162806,-9.75278,-0.0057258,-0.00226369,-0.0098537,299.837,12101692,34.1549,98011.5,33.5221,98014.1,34.1381,98027.4,34.2613,98032.1,0,0,0,0,0,0,-0.45849,-0.162806,-9.75278,0,0,0,0,-0,0,0,0,0,0,0,0,0,0,0,0,0,0,0,0,0,0,0,0,ACC_HOLD_NOT_ELAPSED,0
12125,INIT,12125,-0.454898,-0.035913,-9.57202,0.00133158,-0.00306264,0.0181095,301.587,12122677,-0.48722,-0.161609,-9.578,-0.00239685,-0.00332895,0.00692422,301.837,12136249,-0.472855,-0.0586579,-9.63427,-0.00479369,0.00266316,0.00532632,303.587,12133874,-0.438139,-0.0610521,-9.69652,-0.00692422,0.00519316,0.00838896,299.712,12121131,34.1549,98011.5,33.5221,98014.1,34.1381,98027.4,34.2613,98032.1,0,0,0,0,0,0,-0.438139,-0.0610521,-9.69652,0,0,0,0,-0,0,0,0,0,0,0,0,0,0,0,0,0,0,0,0,0,0,0,0,ACC_HOLD_NOT_ELAPSED,0
12224,INIT,12224,-0.514753,-0.0562637,-9.51815,0.0133158,-0.00226369,0.00106526,301.837,12223575,-0.447716,-0.0933739,-9.578,-0.00945422,0.00372843,0.00186421,302.087,12238084,-0.440533,-0.158017,-9.65103,-0.00426106,0.00386158,0.0015979,303.9,12235084,-0.401029,-0.136469,-9.61631,0.00239685,0.00199737,0.00705738,299.9,12220858,34.2016,98002.8,33.5643,98009,34.1943,98029.6,34.3125,98032.1,0,0,0,0,0,0,-0.401029,-0.136469,-9.61631,0,0,0,0,-0,0,0,0,0,0,0,0,0,0,0,0,0,0,0,0,0,0,0,0,ACC_HOLD_NOT_ELAPSED,0
12243,INIT,12243,-0.428562,-0.129287,-9.5816,0.00266316,-0.00492685,-0.000798948,301.712,12243479,-0.511162,-0.147243,-9.59955,-0.00719053,-0.00759001,0.00466053,301.962,12257988,-0.545878,-0.155623,-9.67018,-0.00146474,-0.000133158,-0.00466053,303.962,12254832,-0.492008,-0.148441,-9.64145,0.00519316,-0.000532632,0.00692422,300.087,12240173,34.2063,98005,33.5925,98014.2,34.213,98031.4,34.3171,98031.9,0,0,0,0,0,0,-0.492008,-0.148441,-9.64145,0,0,0,0,-0,0,0,0,0,0,0,0,0,0,0,0,0,0,0,0,0,0,0,0,ACC_HOLD_NOT_ELAPSED,0
12262,INIT,12262,-0.408211,-0.106542,-9.58399,0.00386158,-0.00372843,-0.00679106,301.9,12263976,-0.507571,-0.205901,-9.5373,-0.00705738,-0.00106526,0.0113184,302.087,12278485,-0.579397,-0.160412,-9.57441,-0.00719053,0.0107858,-0.00492685,303.712,12275017,-0.409408,-0.104148,-9.63786,-0.00772317,-0.00625843,0.00319579,300.025,12259722,34.2063,98005,33.5925,98014.2,34.213,98031.4,34.3171,98031.9,0,0,0,0,0,0,-0.409408,-0.104148,-9.63786,0,0,0,0,-0,0,0,0,0,0,0,0,0,0,0,0,0,0,0,0,0,0,0,0,ACC_HOLD_NOT_ELAPSED,0
12279,INIT,12279,-0.486023,-0.0778116,-9.65462,0.00719053,-0.000399474,0.00253,301.837,12282033,-0.539892,-0.184354,-9.54808,-0.0146474,0.00186421,0.00106526,301.837,12296386,-0.519542,-0.143652,-9.6211,0.00186421,-0.00332895,0.00852212,304.025,12292449,-0.454898,-0.19393,-9.73363,0.00306264,0.00372843,-0.00226369,299.837,12277269,34.2063,98005,33.5925,98014.2,34.213,98031.4,34.3171,98031.9,0,0,0,0,0,0,-0.454898,-0.19393,-9.73363,0,0,0,0,-0,0,0,0,0,0,0,0,0,0,0,0,0,0,0,0,0,0,0,0,ACC_HOLD_NOT_ELAPSED,0
12296,INIT,12296,-0.506374,-0.113725,-9.6642,0.00146474,0.00106526,0.00932106,301.775,12296841,-0.436942,-0.120907,-9.5373,-0.0175769,-0.0102532,0.00719053,301.775,12311663,-0.44173,-0.131681,-9.64504,0.00066579,-0.00306264,0.000399474,303.712,12308038,-0.423774,-0.160412,-9.74081,-0.00319579,-0.00798948,-0.00226369,299.962,12293535,34.2063,98005,33.5925,98014.2,34.213,98031.4,34.3171,98031.9,0,0,0,0,0,0,-0.423774,-0.160412,-9.74081,0,0,0,0,-0,0,0,0,0,0,0,0,0,0,0,0,0,0,0,0,0,0,0,0,ACC_HOLD_NOT_ELAPSED,0
12315,INIT,12315,-0.489614,-0.161609,-9.56124,0.0066579,-0.00253,0.0041279,301.837,12314057,-0.456095,-0.162806,-9.55526,-0.00332895,0.00972054,0.00319579,301.837,12329191,-0.481235,-0.131681,-9.60075,-0.00372843,0.00785633,-0.00639159,303.65,12325723,-0.448913,-0.141258,-9.70729,-0.00186421,-0.00745685,0.0041279,300.025,12311788,34.1689,98004.7,33.555,98012.8,34.1802,98028.3,34.2892,98032.9,0,0,0,0,0,0,-0.448913,-0.141258,-9.70729,0,0,0,0,-0,0,0,0,0,0,0,0,0,0,0,0,0,0,0,0,0,0,0,0,ACC_HOLD_NOT_ELAPSED,0
12334,INIT,12334,-0.448913,-0.0790087,-9.59835,-0.00133158,0.00479369,0.0127832,301.525,12331930,-0.448913,-0.172383,-9.63786,-0.00932106,-0.00452737,0.00812264,301.962,12347689,-0.519542,-0.0215478,-9.63666,-0.00918791,0.000133158,0.00452737,303.837,12344377,-0.438139,-0.158017,-9.72644,-0.00106526,0.00332895,0.00492685,299.837,12330790,34.1876,98005.5,33.5737,98014.7,34.2037,98029.9,34.3078,98031.1,0,0,0,0,0,0,-0.438139,-0.158017,-9.72644,0,0,0,0,-0,0,0,0,0,0,0,0,0,0,0,0,0,0,0,0,0,0,0,0,ACC_HOLD_NOT_ELAPSED,0
12355,INIT,12355,-0.530316,-0.0371101,-9.4954,0.00372843,0.00506001,-0.000798948,301.65,12352459,-0.486023,-0.0383072,-9.57202,0.00186421,-0.00173105,0.00266316,302.15,12368531,-0.574608,-0.15682,-9.58519,-0.000532632,-0.00506001,0.00559264,303.775,12365218,-0.465672,-0.196325,-9.73363,-0.00292948,-0.00719053,0.000798948,300.025,12351511,34.2109,98007.2,33.5878,98008.5,34.2224,98028.6,34.3264,98035.8,0,0,0,0,0,0,-0.465672,-0.196325,-9.73363,0,0,0,0,-0,0,0,0,0,0,0,0,0,0,0,0,0,0,0,0,0,0,0,0,ACC_HOLD_NOT_ELAPSED,0
12376,INIT,12376,-0.464475,-0.0610521,-9.58279,-0.00186421,0.00745685,0.00133158,301.775,12373144,-0.417788,-0.162806,-9.63427,-0.00386158,-0.000532632,0.00466053,301.9,12389372,-0.440533,-0.175974,-9.61631,-0.00066579,-0.00173105,0.000266316,303.65,12386216,-0.475249,-0.164003,-9.71687,-0.000266316,0.00133158,-0.00133158,300.087,12372232,34.2203,98005.2,33.5925,98011.3,34.2317,98027.1,34.3311,98030.9,0,0,0,0,0,0,-0.475249,-0.164003,-9.71687,0,0,0,0,-0,0,0,0,0,0,0,0,0,0,0,0,0,0,0,0,0,0,0,0,ACC_HOLD_NOT_ELAPSED,0
12397,INIT,12397,-0.521936,-0.0670376,-9.52892,-0.000932106,-0.00306264,-0.00492685,301.712,12393517,-0.480037,-0.150835,-9.58399,-0.00519316,-0.00599211,-0.00346211,302.025,12409901,-0.480037,-0.15682,-9.6211,0.00639159,0.00426106,-0.00732369,303.65,12406745,-0.409408,-0.204704,-9.73722,0.00692422,-0.00319579,-0.00719053,299.962,12392641,34.2249,98004.5,33.6065,98012.7,34.2364,98026.9,34.3403,98032.9,0,0,0,0,0,0,-0.409408,-0.204704,-9.73722,0,0,0,0,-0,0,0,0,0,0,0,0,0,0,0,0,0,0,0,0,0,0,0,0,ACC_HOLD_NOT_ELAPSED,0
12414,INIT,12414,-0.529119,-0.0383072,-9.54688,0.0107858,-0.00226369,-0.00119842,302.025,12412171,-0.51595,-0.102951,-9.578,0.00292948,0.00612527,0.00359527,302.025,12428711,-0.551863,-0.227449,-9.56484,0.00466053,0.0121174,0.0249006,303.712,12425243,-0.389058,-0.143652,-9.72285,-0.0133158,0.00239685,-0.00213053,300.025,12410862,34.2436,98006.4,33.6206,98013,34.2505,98026.4,34.3589,98028.7,0,0,0,0,0,0,-0.389058,-0.143652,-9.72285,0,0,0,0,-0,0,0,0,0,0,0,0,0,0,0,0,0,0,0,0,0,0,0,0,ACC_HOLD_NOT_ELAPSED,0
12434,INIT,12434,-0.428562,-0.160412,-9.56124,0.00253,0.000133158,0.00439422,301.837,12432355,-0.484826,-0.0586579,-9.58399,-0.00253,-0.00306264,0.00306264,302.025,12448896,-0.497994,-0.169988,-9.64744,-0.00679106,0.00585895,-0.01518,303.65,12445271,-0.444124,-0.148441,-9.65342,-0.00146474,0.00745685,-0.000266316,299.837,12430531,34.2436,98006.4,33.6206,98013,34.2505,98026.4,34.3589,98028.7,0,0,0,0,0,0,-0.444124,-0.148441,-9.65342,0,0,0,0,-0,0,0,0,0,0,0,0,0,0,0,0,0,0,0,0,0,0,0,0,ACC_HOLD_NOT_ELAPSED,0
12451,INIT,12451,-0.502782,-0.106542,-9.62828,-0.00119842,-0.00865527,-0.00798948,301.962,12450476,-0.560243,-0.0873884,-9.54688,-0.00945422,-0.00426106,-0.00266316,301.837,12467173,-0.557849,-0.172383,-9.61392,-0.00346211,-0.000932106,0.00519316,303.775,12463236,-0.502782,-0.136469,-9.67497,0.000399474,0.00426106,-0.000266316,299.837,12448667,34.2436,98006.4,33.6206,98013,34.2505,98026.4,34.3589,98028.7,0,0,0,0,0,0,-0.502782,-0.136469,-9.67497,0,0,0,0,-0,0,0,0,0,0,0,0,0,0,0,0,0,0,0,0,0,0,0,0,ACC_HOLD_NOT_ELAPSED,0
12467,INIT,12467,-0.435745,-0.106542,-9.67856,-0.00266316,0.00958738,0.00905475,301.712,12464880,-0.517148,-0.125696,-9.57681,-0.0142479,0.00186421,0.00332895,302.025,12481733,-0.512359,-0.137667,-9.56484,-0.0139816,0.00452737,-0.0125169,303.712,12477952,-0.483629,-0.20231,-9.68095,-0.00918791,0.00545948,0.00506001,300.025,12463728,34.2436,98006.4,33.6206,98013,34.2505,98026.4,34.3589,98028.7,0,0,0,0,0,0,-0.483629,-0.20231,-9.68095,0,0,0,0,-0,0,0,0,0,0,0,0,0,0,0,0,0,0,0,0,0,0,0,0,ACC_HOLD_NOT_ELAPSED,0
12487,INIT,12487,-0.40462,-0.0347159,-9.5804,0.00692422,-0.00426106,-0.00359527,301.837,12483502,-0.497994,-0.150835,-9.64265,-0.0113184,0.00905475,0.000133158,301.962,12500824,-0.509965,-0.136469,-9.62469,0.000798948,0.0041279,0,303.9,12497199,-0.463278,-0.146046,-9.75398,-0.00173105,-0.00266316,-0.00692422,300.087,12483419,34.2436,98006.4,33.6206,98013,34.2505,98026.4,34.3589,98028.7,0,0,0,0,0,0,-0.463278,-0.146046,-9.75398,0,0,0,0,-0,0,0,0,0,0,0,0,0,0,0,0,0,0,0,0,0,0,0,0,ACC_HOLD_NOT_ELAPSED,0
12504,INIT,12504,-0.453701,-0.0814029,-9.61392,0.00759001,0.00466053,-0.000532632,301.775,12500437,-0.476446,-0.184354,-9.56723,-0.00319579,-0.00932106,0.00466053,301.962,12518071,-0.466869,-0.138864,-9.56005,-0.0145142,-0.00319579,0.00133158,303.775,12514446,-0.486023,-0.208296,-9.64624,-0.00492685,0.00519316,-0.000266316,299.775,12500482,34.2063,98006.2,33.5878,98012,34.213,98030.2,34.3218,98031.8,0,0,0,0,0,0,-0.477643,-0.183156,-9.72285,0,0,0,0,-0,0,0,0,0,0,0,0,0,0,0,0,0,0,0,0,0,0,0,0,ACC_HOLD_NOT_ELAPSED,0
12521,INIT,12521,-0.469264,-0.106542,-9.65462,-0.00426106,0.00066579,0.00559264,301.462,12517060,-0.518345,-0.0059855,-9.64504,-0.0115848,0.00173105,0.00532632,301.65,12534694,-0.454898,-0.168791,-9.68095,-0.000532632,0.00186421,-0.000399474,303.775,12531225,-0.486023,-0.12809,-9.69053,-0.00106526,0.00399474,-0.00878843,299.837,12517141,34.2109,98002.5,33.5971,98012.3,34.2271,98027.9,34.3357,98030.1,0,0,0,0,0,0,-0.481235,-0.144849,-9.73004,0,0,0,0,-0,0,0,0,0,0,0,0,0,0,0,0,0,0,0,0,0,0,0,0,ACC_HOLD_NOT_ELAPSED,0
12541,INIT,12541,-0.484826,-0.0981623,-9.58758,-0.00266316,-0.00359527,0.00133158,301.587,12537557,-0.520739,-0.213084,-9.58878,-0.00213053,-0.00332895,-0.0114516,302.087,12555504,-0.45849,-0.142455,-9.59716,-0.0135821,0.000266316,0.00226369,303.712,12551879,-0.398635,-0.148441,-9.73363,-0.00106526,-0.00253,0.000266316,299.837,12537714,34.2109,98002.5,33.5971,98012.3,34.2271,98027.9,34.3357,98030.1,0,0,0,0,0,0,-0.497994,-0.0921768,-9.67497,0,0,0,0,-0,0,0,0,0,0,0,0,0,0,0,0,0,0,0,0,0,0,0,0,ACC_HOLD_NOT_ELAPSED,0
12560,INIT,12560,-0.463278,-0.0490811,-9.55406,-0.00865527,0.00106526,0.00066579,301.587,12556491,-0.496797,-0.0622492,-9.62948,-0.01518,-0.00346211,-0.00732369,302.212,12574594,-0.512359,-0.137667,-9.52174,-0.000266316,0.000932106,0.0122505,303.775,12570813,-0.463278,-0.107739,-9.7863,-0.00306264,0.00199737,-0.000932106,299.837,12556602,34.2109,98002.5,33.5971,98012.3,34.2271,98027.9,34.3357,98030.1,0,0,0,0,0,0,-0.395043,-0.100556,-9.75039,0,0,0,0,-0,0,0,0,0,0,0,0,0,0,0,0,0,0,0,0,0,0,0,0,ACC_HOLD_NOT_ELAPSED,0
12578,INIT,12578,-0.472855,-0.0873884,-9.5373,0.00253,-0.00133158,0.0115848,301.837,12574019,-0.415394,-0.140061,-9.60913,-0.00292948,0.00519316,0.00173105,301.837,12592279,-0.535104,-0.125696,-9.63786,-0.00798948,-0.000399474,0.00639159,303.9,12588498,-0.525527,-0.114922,-9.58758,-0.00479369,0.00146474,-0.00466053,299.962,12574358,34.2109,98002.5,33.5971,98012.3,34.2271,98027.9,34.3357,98030.1,0,0,0,0,0,0,-0.369904,-0.136469,-9.72644,0,0,0,0,-0,0,0,0,0,0,0,0,0,0,0,0,0,0,0,0,0,0,0,0,ACC_HOLD_NOT_ELAPSED,0
12594,INIT,12594,-0.413,-0.0562637,-9.64265,0,0.00266316,0.00186421,301.65,12590542,-0.454898,-0.141258,-9.56124,-0.00332895,-0.00279632,0.01265,302.15,12608713,-0.553061,-0.0993594,-9.59596,0.000133158,0.000266316,-0.00133158,303.775,12604776,-0.427365,-0.161609,-9.663,-0.00772317,-0.00199737,-0.000266316,299.65,12590708,34.1969,98006.4,33.5737,98014.7,34.1896,98025,34.3032,98030,0,0,0,0,0,0,-0.409408,-0.175974,-9.72764,0,0,0,0,-0,0,0,0,0,0,0,0,0,0,0,0,0,0,0,0,0,0,0,0,ACC_HOLD_NOT_ELAPSED,0
12610,INIT,12610,-0.469264,-0.0550666,-9.61871,0.0041279,0.00332895,-0.00332895,301.837,12606867,-0.519542,-0.160412,-9.58519,-0.00918791,0.00759001,0.000932106,302.087,12625148,-0.493206,-0.147243,-9.61871,0.0041279,0.00106526,-0.0098537,303.712,12621210,-0.438139,-0.205901,-9.67497,0.00426106,-0.000399474,-0.00199737,299.962,12607214,34.1969,98006.4,33.5737,98014.7,34.1896,98025,34.3032,98030,0,0,0,0,0,0,-0.379481,-0.144849,-9.74201,0,0,0,0,-0,0,0,0,0,0,0,0,0,0,0,0,0,0,0,0,0,0,0,0,ACC_HOLD_NOT_ELAPSED,0
12627,INIT,12627,-0.52433,-0.114922,-9.59596,0.00372843,-0.00545948,0.00066579,301.775,12622896,-0.490811,-0.116119,-9.58878,-0.0130495,0.00292948,-0.00399474,302.025,12641114,-0.427365,-0.0981623,-9.68095,-0.00239685,0.00173105,-0.000266316,303.65,12637176,-0.451307,-0.141258,-9.58399,-0.00532632,-0.00292948,0.0107858,299.775,12623407,34.1969,98006.4,33.5737,98014.7,34.1896,98025,34.3032,98030,0,0,0,0,0,0,-0.460884,-0.108936,-9.7049,0,0,0,0,-0,0,0,0,0,0,0,0,0,0,0,0,0,0,0,0,0,0,0,0,ACC_HOLD_NOT_ELAPSED,0
12643,INIT,12643,-0.453701,-0.0766145,-9.63666,0.00745685,-0.000399474,0.00186421,301.65,12639274,-0.465672,-0.110133,-9.67736,-0.00519316,0.00452737,0.00878843,301.962,12657548,-0.488417,-0.126893,-9.60913,0.00106526,0.0107858,0.00519316,303.9,12653611,-0.429759,-0.101754,-9.69412,-0.00213053,0.00292948,0.00426106,299.775,12639913,34.1969,98006.4,33.5737,98014.7,34.1896,98025,34.3032,98030,0,0,0,0,0,0,-0.417788,-0.181959,-9.77792,0,0,0,0,-0,0,0,0,0,0,0,0,0,0,0,0,0,0,0,0,0,0,0,0,ACC_HOLD_NOT_ELAPSED,0
12660,INIT,12660,-0.480037,-0.0885855,-9.71567,0.00213053,0.00479369,-0.00186421,301.837,12655941,-0.480037,-0.0814029,-9.54329,-0.00332895,-0.000532632,0.0123837,302.087,12674139,-0.520739,-0.0586579,-9.61751,-0.00439422,0.00852212,-0.00319579,303.775,12670201,-0.459687,-0.146046,-9.72884,-0.00519316,-0.00372843,0.00492685,299.837,12656075,34.1829,98005.6,33.5596,98011.5,34.1849,98025.8,34.2939,98032.7,0,0,0,0,0,0,-0.464475,-0.142455,-9.76236,0,0,0,0,-0,0,0,0,0,0,0,0,0,0,0,0,0,0,0,0,0,0,0,0,ACC_HOLD_NOT_ELAPSED,0
12676,INIT,12676,-0.497994,-0.192733,-9.64744,0.0066579,0.00213053,0.00439422,301.65,12672631,-0.497994,-0.00718261,-9.59357,0.00253,-0.000532632,-0.00878843,301.837,12690730,-0.527921,-0.0969652,-9.62469,0.00319579,-0.00466053,0.0149137,303.775,12686792,-0.422577,-0.17358,-9.68933,-0.00719053,0.00679106,0.00332895,299.837,12672641,34.1829,98005.6,33.5596,98011.5,34.1849,98025.8,34.2939,98032.7,0,0,0,0,0,0,-0.422577,-0.17358,-9.68933,0,0,0,0,-0,0,0,0,0,0,0,0,0,0,0,0,0,0,0,0,0,0,0,0,ACC_HOLD_NOT_ELAPSED,0
12694,INIT,12694,-0.519542,-0.0981623,-9.59237,0.000133158,-0.00466053,-0.00679106,301.712,12689791,-0.466869,-0.197522,-9.58279,-0.00506001,0.00306264,-0.00359527,301.837,12707945,-0.460884,-0.12809,-9.58638,-0.00292948,0.00812264,0.00918791,303.775,12703852,-0.454898,-0.0981623,-9.67736,0.00319579,-0.00292948,-0.00226369,299.962,12689800,34.1829,98005.6,33.5596,98011.5,34.1849,98025.8,34.2939,98032.7,0,0,0,0,0,0,-0.454898,-0.0981623,-9.67736,0,0,0,0,-0,0,0,0,0,0,0,0,0,0,0,0,0,0,0,0,0,0,0,0,ACC_HOLD_NOT_ELAPSED,0
12711,INIT,12711,-0.439336,-0.0395043,-9.5804,-0.00519316,-0.00332895,0.00439422,301.712,12707419,-0.519542,-0.104148,-9.58519,-0.00785633,-0.00306264,0.00492685,301.962,12725474,-0.554258,-0.137667,-9.58279,0.0057258,0.00199737,0.0123837,303.587,12721380,-0.438139,-0.118513,-9.70969,0.00705738,-0.00759001,0.00479369,300.087,12707993,34.1829,98005.6,33.5596,98011.5,34.1849,98025.8,34.2939,98032.7,0,0,0,0,0,0,-0.45011,-0.125696,-9.72285,0,0,0,0,-0,0,0,0,0,0,0,0,0,0,0,0,0,0,0,0,0,0,0,0,ACC_HOLD_NOT_ELAPSED,0
12730,INIT,12730,-0.444124,-0.107739,-9.54089,0.00545948,0.00346211,-0.00679106,301.587,12725015,-0.544681,-0.143652,-9.59476,0.00466053,0.00426106,0.0118511,302.15,12743346,-0.520739,-0.187945,-9.61511,-0.00519316,-0.000399474,-0.00958738,303.775,12739565,-0.463278,-0.204704,-9.7037,-0.00585895,-0.0057258,0.00639159,299.775,12725557,34.1829,98005.6,33.5596,98011.5,34.1849,98025.8,34.2939,98032.7,0,0,0,0,0,0,-0.432153,-0.108936,-9.74081,0,0,0,0,-0,0,0,0,0,0,0,0,0,0,0,0,0,0,0,0,0,0,0,0,ACC_HOLD_NOT_ELAPSED,0
12748,INIT,12748,-0.423774,-0.0670376,-9.61511,-0.00319579,-0.00119842,-0.000133158,301.587,12743893,-0.518345,-0.154426,-9.61871,0.00599211,-0.00878843,0.00319579,301.9,12761968,-0.447716,-0.147243,-9.67976,-0.00213053,0.00466053,-0.0161121,303.775,12757875,-0.444124,-0.148441,-9.71687,-0.00186421,0.0057258,-0.00106526,300.025,12744311,34.1736,98003.4,33.5503,98011.7,34.1802,98028.3,34.2939,98033.9,0,0,0,0,0,0,-0.476446,-0.118513,-9.66779,0,0,0,0,-0,0,0,0,0,0,0,0,0,0,0,0,0,0,0,0,0,0,0,0,ACC_HOLD_NOT_ELAPSED,0
12766,INIT,12766,-0.432153,-0.15682,-9.51216,-0.000798948,0.00306264,0.00386158,301.462,12761989,-0.448913,-0.177171,-9.56364,-0.01012,0.000133158,0.00759001,301.9,12780122,-0.466869,-0.112527,-9.55406,-0.00559264,-0.000399474,0.00639159,303.9,12776028,-0.472855,-0.198719,-9.68095,0.0066579,0.0057258,0.000266316,299.962,12762535,34.1736,98003.4,33.5503,98011.7,34.1802,98028.3,34.2939,98033.9,0,0,0,0,0,0,-0.488417,-0.141258,-9.69891,0,0,0,0,-0,0,0,0,0,0,0,0,0,0,0,0,0,0,0,0,0,0,0,0,ACC_HOLD_NOT_ELAPSED,0
12785,INIT,12785,-0.39624,-0.135272,-9.57202,0.00239685,0.00346211,0.00253,301.775,12780242,-0.474052,-0.172383,-9.59476,-0.00213053,0.00452737,-0.00106526,301.9,12798119,-0.466869,-0.0885855,-9.6642,-0.00532632,0,-0.00199737,303.837,12794181,-0.402226,-0.114922,-9.72285,-0.000798948,0.00892159,-0.00226369,299.837,12780760,34.1736,98003.4,33.5503,98011.7,34.1802,98028.3,34.2939,98033.9,0,0,0,0,0,0,-0.418985,-0.152032,-9.71208,0,0,0,0,-0,0,0,0,0,0,0,0,0,0,0,0,0,0,0,0,0,0,0,0,ACC_HOLD_NOT_ELAPSED,0
12804,INIT,12804,-0.444124,-0.0861913,-9.60673,0.00279632,-0.00213053,-0.00239685,301.462,12799120,-0.572214,-0.136469,-9.55406,-0.0066579,-0.00146474,0.00346211,301.837,12817053,-0.531513,-0.113725,-9.57322,-0.00186421,0.00599211,0.00199737,303.837,12812959,-0.385466,-0.168791,-9.70011,0.00932106,-0.00798948,0.00266316,299.962,12799734,34.1736,98003.4,33.5503,98011.7,34.1802,98028.3,34.2939,98033.9,0,0,0,0,0,0,-0.462081,-0.265756,-9.72764,0,0,0,0,-0,0,0,0,0,0,0,0,0,0,0,0,0,0,0,0,0,0,0,0,ACC_HOLD_NOT_ELAPSED,0
12823,INIT,12823,-0.470461,-0.0969652,-9.61392,0.00905475,0.00439422,0.0110521,301.712,12818155,-0.454898,-0.181959,-9.59835,-0.0107858,0.00332895,-0.000266316,301.9,12835988,-0.543484,-0.0682347,-9.60314,-0.00292948,-0.00066579,-0.00399474,303.775,12831894,-0.427365,-0.160412,-9.67736,-0.00625843,0.000266316,-0.00266316,300.025,12818676,34.1736,98002.9,33.5596,98012.7,34.1849,98030,34.2846,98030.7,0,0,0,0,0,0,-0.472855,-0.166397,-9.63427,0,0,0,0,-0,0,0,0,0,0,0,0,0,0,0,0,0,0,0,0,0,0,0,0,ACC_HOLD_NOT_ELAPSED,0
12842,INIT,12842,-0.408211,-0.0802058,-9.54089,-0.00452737,0.000133158,0.00133158,301.587,12837345,-0.513556,-0.12809,-9.55526,-0.00239685,0.000133158,-0.0041279,301.9,12855235,-0.499191,-0.125696,-9.6642,0.000532632,-0.00292948,0.00759001,303.65,12850985,-0.484826,-0.164003,-9.71088,0.00466053,-0.00506001,-0.00519316,299.962,12837806,34.1736,98002.9,33.5596,98012.7,34.1849,98030,34.2846,98030.7,0,0,0,0,0,0,-0.395043,-0.0885855,-9.63786,0,0,0,0,-0,0,0,0,0,0,0,0,0,0,0,0,0,0,0,0,0,0,0,0,ACC_HOLD_NOT_ELAPSED,0
12861,INIT,12861,-0.488417,-0.0263362,-9.62589,0.0098537,-0.00253,-0.00213053,301.9,12856379,-0.520739,-0.0897826,-9.63068,-0.00719053,0.00439422,0.00119842,302.275,12874169,-0.560243,-0.167594,-9.66898,-0.0125169,0.00133158,-0.00279632,303.775,12870075,-0.477643,-0.122104,-9.66539,-0.00745685,-0.000399474,0.0103863,299.962,12856937,34.1736,98002.9,33.5596,98012.7,34.1849,98030,34.2846,98030.7,0,0,0,0,0,0,-0.391452,-0.146046,-9.72405,0,0,0,0,-0,0,0,0,0,0,0,0,0,0,0,0,0,0,0,0,0,0,0,0,ACC_HOLD_NOT_ELAPSED,0
12881,INIT,12881,-0.399832,-0.0502782,-9.53251,0.00399474,-0.00652474,0.0150469,301.962,12875726,-0.484826,-0.118513,-9.58878,-0.00133158,-0.00785633,-0.00679106,302.025,12893572,-0.484826,-0.167594,-9.6606,-0.00426106,0.0066579,0.00878843,303.9,12889479,-0.462081,-0.201113,-9.64504,0.00106526,0.00452737,0.000266316,299.962,12876347,34.1736,98002.9,33.5596,98012.7,34.1849,98030,34.2846,98030.7,0,0,0,0,0,0,-0.402226,-0.0706289,-9.73363,0,0,0,0,-0,0,0,0,0,0,0,0,0,0,0,0,0,0,0,0,0,0,0,0,ACC_HOLD_NOT_ELAPSED,0
12901,INIT,12901,-0.380678,-0.159214,-9.55047,0.00319579,-0.000798948,0.00905475,301.65,12896010,-0.474052,-0.161609,-9.69293,0.00439422,0.00186421,-0.00146474,301.837,12913757,-0.471658,-0.113725,-9.7025,0.00506001,0.00319579,0.0149137,303.775,12909663,-0.447716,-0.168791,-9.68215,-0.00292948,0.00945422,0.00173105,299.837,12896728,34.1783,98006.9,33.555,98012.2,34.1849,98029.4,34.2939,98030.9,0,0,0,0,0,0,-0.380678,-0.0957681,-9.75517,0,0,0,0,-0,0,0,0,0,0,0,0,0,0,0,0,0,0,0,0,0,0,0,0,ACC_HOLD_NOT_ELAPSED,0
12921,INIT,12921,-0.426168,-0.150835,-9.5804,0.00119842,-0.00239685,0.000399474,301.775,12916295,-0.509965,-0.136469,-9.58758,-0.00332895,0.00133158,0.00186421,301.837,12934098,-0.562637,-0.102951,-9.62589,-0.00239685,0.00372843,-0.00585895,303.962,12929848,-0.464475,-0.153229,-9.71088,0.00745685,-0.00599211,0.000932106,300.025,12916920,34.1969,98004.6,33.5784,98012.2,34.2037,98031.1,34.3032,98031.2,0,0,0,0,0,0,-0.484826,-0.161609,-9.73722,0,0,0,0,-0,0,0,0,0,0,0,0,0,0,0,0,0,0,0,0,0,0,0,0,ACC_HOLD_NOT_ELAPSED,0
12941,INIT,12941,-0.37589,-0.0706289,-9.56124,0.00186421,-0.0015979,0.00732369,301.65,12936266,-0.48722,-0.0837971,-9.66539,-0.00439422,-0.00452737,-0.00759001,301.962,12954126,-0.508768,-0.0646434,-9.64025,0.00213053,-0.000932106,0.0129163,303.9,12949876,-0.423774,-0.180762,-9.80545,-0.0041279,0.00399474,0.0057258,300.025,12936955,34.2249,98007.5,33.6018,98011.6,34.2177,98027,34.3403,98034.1,0,0,0,0,0,0,-0.459687,-0.131681,-9.67018,0,0,0,0,-0,0,0,0,0,0,0,0,0,0,0,0,0,0,0,0,0,0,0,0,ACC_HOLD_NOT_ELAPSED,0
12957,INIT,12957,-0.432153,-0.0670376,-9.56843,0.00798948,0.00426106,-0.00332895,301.587,12951675,-0.54109,-0.105345,-9.65342,-0.0041279,0.00106526,0.00372843,301.65,12969499,-0.512359,-0.0251391,-9.59835,-0.00838896,0.0119842,0.00559264,303.9,12965249,-0.475249,-0.184354,-9.69412,-0.000399474,0.0098537,-0.0111853,299.9,12952304,34.2296,98004.4,33.6112,98009.7,34.2411,98027.4,34.3496,98030.8,0,0,0,0,0,0,-0.405817,-0.171185,-9.7037,0,0,0,0,-0,0,0,0,0,0,0,0,0,0,0,0,0,0,0,0,0,0,0,0,ACC_HOLD_NOT_ELAPSED,0
12977,INIT,12977,-0.475249,-0.112527,-9.57441,-0.00226369,-0.00106526,0.00479369,301.837,12971803,-0.553061,-0.130484,-9.59955,-0.000932106,0.00545948,-0.00625843,301.9,12989683,-0.484826,-0.134075,-9.57322,0.00559264,0.00292948,0.0322242,303.712,12985433,-0.439336,-0.0837971,-9.68215,0.000798948,-0.0041279,-0.000932106,299.962,12971839,34.2529,98004.5,33.6253,98011.7,34.2552,98026.3,34.3682,98032.6,0,0,0,0,0,0,-0.439336,-0.0837971,-9.68215,0,0,0,0,-0,0,0,0,0,0,0,0,0,0,0,0,0,0,0,0,0,0,0,0,ACC_HOLD_NOT_ELAPSED,0
12993,INIT,12993,-0.45011,-0.148441,-9.51695,0.00466053,-0.00719053,0.00359527,301.775,12987368,-0.527921,-0.11133,-9.58519,-0.000133158,0.00732369,-0.00106526,301.962,13005212,-0.542287,-0.102951,-9.663,-0.00199737,0.00812264,-0.00319579,303.775,13000962,-0.413,-0.21069,-9.64265,0.00545948,0.0082558,0.00199737,300.025,12988124,34.2669,98002.9,33.644,98010.6,34.2786,98029,34.3775,98028.7,0,0,0,0,0,0,-0.459687,-0.146046,-9.63786,0,0,0,0,-0,0,0,0,0,0,0,0,0,0,0,0,0,0,0,0,0,0,0,0,ACC_HOLD_NOT_ELAPSED,0
13013,INIT,13013,-0.454898,-0.0466869,-9.60314,0.00692422,-0.00372843,0.00386158,301.837,13007964,-0.474052,-0.172383,-9.57561,-0.00652474,-0.000532632,0.00332895,302.025,13025709,-0.459687,-0.104148,-9.61631,0.00785633,0.00399474,0.0170442,303.712,13021459,-0.433351,-0.120907,-9.73842,0.00226369,-0.0041279,-0.00239685,300.025,13008505,34.2762,98006.2,33.6581,98009.7,34.2879,98026.9,34.3915,98030.6,0,0,0,0,0,0,-0.438139,-0.160412,-9.77433,0,0,0,0,-0,0,0,0,0,0,0,0,0,0,0,0,0,0,0,0,0,0,0,0,ACC_HOLD_NOT_ELAPSED,0
13029,INIT,13029,-0.469264,-0.135272,-9.56244,-0.00292948,-0.0015979,-0.00266316,301.837,13023685,-0.424971,-0.125696,-9.63187,-0.01265,-0.00359527,-0.00173105,301.962,13041394,-0.481235,-0.112527,-9.64025,-0.00759001,0.00585895,-0.00319579,303.712,13037144,-0.465672,-0.143652,-9.73482,-0.00545948,-0.00639159,-0.00292948,300.025,13024290,34.2762,98006.2,33.6581,98009.7,34.2879,98026.9,34.3915,98030.6,0,0,0,0,0,0,-0.335188,-0.114922,-9.6642,0,0,0,0,-0,0,0,0,0,0,0,0,0,0,0,0,0,0,0,0,0,0,0,0,ACC_HOLD_NOT_ELAPSED,0
13045,INIT,13045,-0.469264,-0.146046,-9.4954,0.00199737,-0.00798948,-0.00559264,301.962,13039094,-0.523133,-0.174777,-9.67377,-0.0066579,-0.00199737,-0.00599211,301.837,13056923,-0.4956,-0.0538695,-9.60434,-0.000399474,-0.00346211,0.00612527,303.9,13052517,-0.410606,-0.114922,-9.7049,0.00372843,-0.000399474,0.0082558,299.962,13039762,34.2949,98003.4,33.6628,98007.2,34.2973,98027.8,34.41,98034.1,0,0,0,0,0,0,-0.447716,-0.12809,-9.73363,0,0,0,0,-0,0,0,0,0,0,0,0,0,0,0,0,0,0,0,0,0,0,0,0,ACC_HOLD_NOT_ELAPSED,0
13065,INIT,13065,-0.464475,-0.135272,-9.52653,0.000798948,-0.00532632,0.0106526,301.837,13059534,-0.486023,-0.105345,-9.59357,-0.00332895,-0.000266316,0.00253,301.9,13077264,-0.530316,-0.158017,-9.62469,-0.0041279,0.00292948,0.00226369,303.712,13073014,-0.472855,-0.0957681,-9.68215,0.00306264,0.00612527,0.00958738,299.837,13060174,34.2996,98001.5,33.6722,98010.5,34.2973,98024.1,34.41,98029.9,0,0,0,0,0,0,-0.4956,-0.125696,-9.68215,0,0,0,0,-0,0,0,0,0,0,0,0,0,0,0,0,0,0,0,0,0,0,0,0,ACC_HOLD_NOT_ELAPSED,0
13081,INIT,13081,-0.463278,-0.146046,-9.57561,0.00213053,0.00119842,0.00692422,301.837,13075099,-0.519542,-0.123301,-9.51216,-0.0142479,-0.00173105,0.00346211,301.712,13092793,-0.483629,-0.132878,-9.64145,0.0125169,0.00332895,-0.0057258,303.65,13088543,-0.428562,-0.0754174,-9.71447,0.00332895,-0.00426106,-0.00506001,300.087,13075803,34.2996,98002.7,33.6909,98013.6,34.3067,98026.2,34.424,98030.1,0,0,0,0,0,0,-0.429759,-0.180762,-9.72405,0,0,0,0,-0,0,0,0,0,0,0,0,0,0,0,0,0,0,0,0,0,0,0,0,ACC_HOLD_NOT_ELAPSED,0
13097,INIT,13097,-0.45849,-0.0395043,-9.60314,-0.00426106,-0.00932106,0.00292948,301.837,13090820,-0.547075,-0.132878,-9.57561,-0.0082558,0.00133158,-0.000266316,302.087,13108635,-0.503979,-0.138864,-9.64025,0.00532632,0.0082558,-0.000798948,303.712,13104228,-0.402226,-0.114922,-9.69532,0.00719053,0.00292948,-0.00585895,299.962,13091588,34.3182,98004,33.6862,98012,34.316,98025.3,34.4193,98028.4,0,0,0,0,0,0,-0.410606,-0.0957681,-9.73363,0,0,0,0,-0,0,0,0,0,0,0,0,0,0,0,0,0,0,0,0,0,0,0,0,ACC_HOLD_NOT_ELAPSED,0
13118,INIT,13118,-0.4956,-0.172383,-9.65821,0.00319579,-0.00399474,0.00625843,301.65,13112042,-0.604536,-0.0167594,-9.60913,-0.010919,-0.00639159,0.00532632,301.962,13129757,-0.463278,-0.132878,-9.52294,-0.00466053,0.00892159,-0.0197074,303.775,13125350,-0.486023,-0.162806,-9.74201,-0.00066579,-0.00199737,0.00239685,299.962,13112625,34.3275,98005.6,33.6909,98013,34.3254,98027.4,34.4333,98031.5,0,0,0,0,0,0,-0.422577,-0.107739,-9.7851,0,0,0,0,-0,0,0,0,0,0,0,0,0,0,0,0,0,0,0,0,0,0,0,0,ACC_HOLD_NOT_ELAPSED,0
13134,INIT,13134,-0.438139,-0.132878,-9.60314,0.00319579,0.00332895,0.00506001,301.65,13128075,-0.496797,-0.147243,-9.57561,-0.00306264,0.0015979,0.00452737,302.15,13145754,-0.482432,-0.0778116,-9.59476,0.00386158,0.00199737,0.0117179,303.712,13141348,-0.381875,-0.142455,-9.65222,-0.00918791,-0.00372843,0.0057258,300.025,13128755,34.3275,98005.6,33.6909,98013,34.3254,98027.4,34.4333,98031.5,0,0,0,0,0,0,-0.405817,-0.1652,-9.72166,0,0,0,0,-0,0,0,0,0,0,0,0,0,0,0,0,0,0,0,0,0,0,0,0,ACC_HOLD_NOT_ELAPSED,0
13150,INIT,13150,-0.453701,-0.122104,-9.60195,-0.000133158,-0.00213053,-0.00213053,301.712,13143796,-0.53271,-0.11133,-9.59716,-0.0163784,-0.00812264,0.00106526,301.962,13161596,-0.536301,-0.094571,-9.59357,-0.00519316,0.00173105,-0.0015979,303.712,13157190,-0.386664,-0.0490811,-9.68095,-0.00066579,-0.00253,0.00359527,300.087,13144384,34.3275,98003.8,33.6956,98010.6,34.3301,98026,34.4426,98030.6,0,0,0,0,0,0,-0.402226,-0.0993594,-9.70011,0,0,0,0,-0,0,0,0,0,0,0,0,0,0,0,0,0,0,0,0,0,0,0,0,ACC_HOLD_NOT_ELAPSED,0
13166,INIT,13166,-0.502782,-0.0873884,-9.5385,0.00732369,0.000932106,-0.000532632,302.025,13159830,-0.433351,-0.180762,-9.55406,-0.00266316,0.00399474,0,302.212,13177594,-0.494403,-0.179565,-9.578,-0.00452737,0.0106526,0.00918791,303.9,13173187,-0.476446,-0.203507,-9.73243,-0.000932106,-0.00732369,-0.00692422,300.087,13159856,34.3275,98003.2,33.7003,98009.3,34.3301,98024.2,34.4426,98028.2,0,0,0,0,0,0,-0.439336,-0.102951,-9.75398,0,0,0,0,-0,0,0,0,0,0,0,0,0,0,0,0,0,0,0,0,0,0,0,0,ACC_HOLD_NOT_ELAPSED,0
13187,INIT,13187,-0.402226,-0.12809,-9.59117,-0.00133158,-0.00479369,0.0113184,301.9,13180895,-0.484826,-0.126893,-9.58998,-0.00772317,-0.00479369,0.00705738,301.962,13198716,-0.466869,-0.11133,-9.54089,-0.00386158,0.00705738,-0.01012,303.712,13194309,-0.462081,-0.186748,-9.70131,-0.00399474,-0.00599211,0.00785633,299.962,13181018,34.3322,98003.7,33.705,98009.8,34.3347,98025.8,34.4379,98030.2,0,0,0,0,0,0,-0.378284,-0.215478,-9.62828,0,0,0,0,-0,0,0,0,0,0,0,0,0,0,0,0,0,0,0,0,0,0,0,0,ACC_HOLD_NOT_ELAPSED,0
13203,INIT,13203,-0.468066,-0.106542,-9.58519,0.00612527,-0.00106526,-0.000532632,301.65,13197085,-0.483629,-0.174777,-9.63906,-0.000798948,-0.00199737,-0.00719053,301.837,13214870,-0.556652,-0.143652,-9.5816,-0.00146474,0.00612527,-0.000798948,303.712,13210463,-0.420182,-0.117316,-9.7456,-0.00719053,0.000266316,0.00199737,300.025,13197115,34.3415,98004.6,33.719,98012.9,34.3347,98024.6,34.4472,98027.5,0,0,0,0,0,0,-0.408211,-0.150835,-9.72285,0,0,0,0,-0,0,0,0,0,0,0,0,0,0,0,0,0,0,0,0,0,0,0,0,ACC_HOLD_NOT_ELAPSED,0
13219,INIT,13219,-0.509965,-0.101754,-9.58279,0.00253,0.00266316,0.00625843,301.837,13212806,-0.511162,-0.117316,-9.55167,-0.00452737,0.00759001,-0.00173105,301.837,13230399,-0.436942,-0.179565,-9.68814,-0.00639159,0.0041279,0.0129163,303.775,13225992,-0.463278,-0.108936,-9.75757,-0.00559264,0.000532632,0.00146474,299.962,13213401,34.3415,98004.6,33.719,98012.9,34.3347,98024.6,34.4472,98027.5,0,0,0,0,0,0,-0.363919,-0.130484,-9.79468,0,0,0,0,-0,0,0,0,0,0,0,0,0,0,0,0,0,0,0,0,0,0,0,0,ACC_HOLD_NOT_ELAPSED,0
13235,INIT,13235,-0.492008,-0.144849,-9.52294,0.00332895,0.000133158,-0.00932106,301.962,13228996,-0.446519,-0.191536,-9.58878,-0.00239685,-0.00932106,0.00372843,301.9,13246709,-0.482432,-0.178368,-9.67377,-0.00106526,0.000798948,-0.00705738,303.712,13242146,-0.448913,-0.134075,-9.7049,-0.000399474,-0.00545948,0.00479369,300.025,13229498,34.3509,98005.6,33.719,98011.2,34.3394,98024.4,34.4519,98030.3,0,0,0,0,0,0,-0.452504,-0.125696,-9.65222,0,0,0,0,-0,0,0,0,0,0,0,0,0,0,0,0,0,0,0,0,0,0,0,0,ACC_HOLD_NOT_ELAPSED,0
13251,INIT,13251,-0.444124,-0.100556,-9.61631,0.00213053,0.00878843,0.00319579,301.837,13244873,-0.508768,-0.154426,-9.6606,-0.00213053,-0.00719053,0.00559264,302.15,13262550,-0.538695,-0.178368,-9.62828,-0.00652474,0.00213053,-0.0098537,303.9,13258144,-0.447716,-0.150835,-9.69293,-0.00106526,0.00452737,0.00759001,299.837,13245628,34.3415,98002.9,33.719,98012.4,34.3441,98027.9,34.4519,98028.5,0,0,0,0,0,0,-0.420182,-0.146046,-9.67497,0,0,0,0,-0,0,0,0,0,0,0,0,0,0,0,0,0,0,0,0,0,0,0,0,ACC_HOLD_NOT_ELAPSED,0
13267,INIT,13267,-0.494403,-0.11133,-9.57082,0.0041279,-0.00253,-0.00266316,301.65,13260907,-0.543484,-0.136469,-9.60434,-0.00865527,-0.00106526,0.00386158,302.025,13278548,-0.432153,-0.116119,-9.60793,0.000133158,0.00332895,-0.00639159,303.712,13273986,-0.423774,-0.125696,-9.63068,-0.00745685,-0.00479369,-0.00066579,299.962,13261445,34.3602,98004.8,33.7144,98010.1,34.3441,98027.9,34.4658,98035.2,0,0,0,0,0,0,-0.423774,-0.136469,-9.70729,0,0,0,0,-0,0,0,0,0,0,0,0,0,0,0,0,0,0,0,0,0,0,0,0,ACC_HOLD_NOT_ELAPSED,0
13283,INIT,13283,-0.47884,-0.0957681,-9.56962,-0.00625843,0.00599211,0.00133158,301.712,13277253,-0.434548,-0.217872,-9.56603,-0.00426106,-0.00452737,-0.00133158,302.087,13295015,-0.463278,-0.113725,-9.62589,0.00213053,0.0041279,-0.00253,303.9,13290452,-0.433351,-0.131681,-9.69891,0.00492685,0.0098537,0.01012,299.837,13278043,34.3462,98001.6,33.719,98013.5,34.3441,98027.9,34.4658,98029.2,0,0,0,0,0,0,-0.428562,-0.122104,-9.69891,0,0,0,0,-0,0,0,0,0,0,0,0,0,0,0,0,0,0,0,0,0,0,0,0,ACC_HOLD_NOT_ELAPSED,0
13299,INIT,13299,-0.463278,-0.0706289,-9.63666,0.00346211,-0.00186421,-0.000798948,301.837,13293286,-0.45849,-0.047884,-9.60673,-0.00905475,0.00279632,0.00226369,301.9,13311012,-0.4956,-0.178368,-9.55167,0.000266316,-0.000266316,0.00719053,303.65,13306450,-0.452504,-0.0790087,-9.68215,0.00452737,0.00279632,0.000133158,300.15,13294016,34.3462,98001.6,33.719,98013.5,34.3441,98027.9,34.4658,98029.2,0,0,0,0,0,0,-0.497994,-0.190339,-9.75158,0,0,0,0,-0,0,0,0,0,0,0,0,0,0,0,0,0,0,0,0,0,0,0,0,ACC_HOLD_NOT_ELAPSED,0
13316,INIT,13316,-0.393846,0.0023942,-9.59835,-0.00066579,0.00426106,0.00479369,301.9,13309320,-0.469264,-0.0418985,-9.54808,-0.00452737,0.000133158,0.00173105,301.9,13327010,-0.610521,-0.168791,-9.60673,-0.00359527,0.00173105,0.00692422,303.65,13322448,-0.411803,-0.143652,-9.68215,-0.00599211,0.00332895,-0.00066579,299.962,13309333,34.3462,98001.6,33.719,98013.5,34.3441,98027.9,34.4658,98029.2,0,0,0,0,0,0,-0.411803,-0.143652,-9.68215,0,0,0,0,-0,0,0,0,0,0,0,0,0,0,0,0,0,0,0,0,0,0,0,0,ACC_HOLD_NOT_ELAPSED,0
13332,INIT,13332,-0.399832,-0.175974,-9.65941,0.00625843,0.00492685,0.000133158,301.712,13325197,-0.445322,-0.131681,-9.60913,-0.0130495,-0.000532632,0.00119842,302.025,13342852,-0.505177,-0.191536,-9.61392,0.00066579,-0.00239685,0.00612527,303.712,13338289,-0.430956,-0.186748,-9.64145,-0.0113184,0.0057258,-0.000932106,299.837,13325899,34.3462,98001.6,33.719,98013.5,34.3441,98027.9,34.4658,98029.2,0,0,0,0,0,0,-0.429759,-0.12809,-9.69412,0,0,0,0,-0,0,0,0,0,0,0,0,0,0,0,0,0,0,0,0,0,0,0,0,ACC_HOLD_NOT_ELAPSED,0
13348,INIT,13348,-0.509965,-0.0586579,-9.56005,0.00439422,0.000932106,0.00692422,301.9,13341230,-0.496797,-0.180762,-9.56603,0.000133158,-0.00279632,0.00785633,301.9,13358849,-0.427365,-0.094571,-9.60554,0.00173105,0,-0.000399474,303.775,13354287,-0.459687,-0.164003,-9.61871,0.00625843,0.00399474,0.00332895,299.837,13341872,34.3462,98001.6,33.719,98013.5,34.3441,98027.9,34.4658,98029.2,0,0,0,0,0,0,-0.464475,-0.114922,-9.65821,0,0,0,0,-0,0,0,0,0,0,0,0,0,0,0,0,0,0,0,0,0,0,0,0,ACC_HOLD_NOT_ELAPSED,0
13364,INIT,13364,-0.446519,-0.0814029,-9.54927,0.00639159,-0.00253,0.00226369,301.9,13357264,-0.509965,-0.0957681,-9.65462,-0.00918791,-0.00719053,0.00612527,302.087,13375003,-0.508768,-0.134075,-9.60793,-0.00745685,0.0122505,0.00732369,303.712,13370285,-0.402226,-0.12809,-9.75637,-0.0111853,-0.00226369,-0.00439422,299.837,13358002,34.2996,98006.8,33.6675,98009.5,34.2973,98032,34.4054,98031.3,0,0,0,0,0,0,-0.496797,-0.131681,-9.73363,0,0,0,0,-0,0,0,0,0,0,0,0,0,0,0,0,0,0,0,0,0,0,0,0,ACC_HOLD_NOT_ELAPSED,0
13380,INIT,13380,-0.476446,-0.0502782,-9.61152,-0.000266316,-0.00492685,0.00106526,301.587,13373766,-0.483629,-0.130484,-9.64863,0.000399474,-0.00452737,0.01265,302.087,13391470,-0.503979,-0.11971,-9.65941,0.00585895,-0.00559264,0.00226369,303.712,13386751,-0.335188,-0.154426,-9.76715,-0.00492685,0.00146474,0.00173105,299.9,13374287,34.2996,98006.8,33.6675,98009.5,34.2973,98032,34.4054,98031.3,0,0,0,0,0,0,-0.451307,-0.186748,-9.63427,0,0,0,0,-0,0,0,0,0,0,0,0,0,0,0,0,0,0,0,0,0,0,0,0,ACC_HOLD_NOT_ELAPSED,0
13396,INIT,13396,-0.503979,-0.125696,-9.55406,0.00759001,-0.00519316,0.00599211,301.775,13389643,-0.452504,-0.104148,-9.56124,0.00253,0.0057258,-0.00785633,302.15,13407311,-0.520739,-0.0849942,-9.56484,-0.00545948,0.00599211,-0.00439422,303.712,13402593,-0.483629,-0.138864,-9.7456,0.000133158,-0.00719053,-0.00639159,299.837,13390261,34.2996,98005.7,33.6769,98014.5,34.3113,98028.5,34.4147,98030.4,0,0,0,0,0,0,-0.430956,-0.0837971,-9.74919,0,0,0,0,-0,0,0,0,0,0,0,0,0,0,0,0,0,0,0,0,0,0,0,0,ACC_HOLD_NOT_ELAPSED,0
13412,INIT,13412,-0.417788,-0.0837971,-9.61152,0.00146474,-0.00639159,0.0041279,301.712,13405833,-0.536301,-0.0921768,-9.63187,-0.000798948,0.000399474,0.00213053,302.025,13423465,-0.503979,-0.125696,-9.60673,-0.0118511,0.000133158,0.0131826,303.712,13418747,-0.402226,-0.120907,-9.76116,0.00545948,0.00545948,0.00332895,299.962,13406514,34.3229,98005.7,33.6909,98015.4,34.316,98029.5,34.4286,98029.9,0,0,0,0,0,0,-0.539892,-0.0610521,-9.67257,0,0,0,0,-0,0,0,0,0,0,0,0,0,0,0,0,0,0,0,0,0,0,0,0,ACC_HOLD_NOT_ELAPSED,0
13429,INIT,13428,-0.508768,-0.135272,-9.64504,0.00759001,0.0015979,0.00319579,301.525,13421867,-0.448913,-0.116119,-9.56124,-0.0137153,-0.000798948,-0.00519316,302.087,13439463,-0.463278,-0.168791,-9.68694,-0.00186421,0.00346211,-0.00399474,303.9,13434744,-0.420182,-0.102951,-9.73123,0.000532632,0.00332895,0.00905475,299.837,13422456,34.3229,98002.7,33.6862,98010.2,34.3254,98026.8,34.4333,98030.9,0,0,0,0,0,0,-0.395043,-0.117316,-9.65342,0,0,0,0,-0,0,0,0,0,0,0,0,0,0,0,0,0,0,0,0,0,0,0,0,ACC_HOLD_NOT_ELAPSED,0
13445,INIT,13445,-0.451307,-0.0981623,-9.62469,0.00585895,-0.00479369,0.00439422,301.962,13438213,-0.538695,-0.12809,-9.54209,-0.00119842,0.00519316,0.0102532,301.962,13455930,-0.471658,-0.146046,-9.65103,-0.00173105,-0.00266316,-0.0179763,303.962,13451211,-0.512359,-0.114922,-9.72285,-0.00798948,-0.00506001,0.00759001,299.962,13438241,34.3229,98002.7,33.6862,98010.2,34.3254,98026.8,34.4333,98030.9,0,0,0,0,0,0,-0.512359,-0.114922,-9.72285,0,0,0,0,-0,0,0,0,0,0,0,0,0,0,0,0,0,0,0,0,0,0,0,0,ACC_HOLD_NOT_ELAPSED,0
13461,INIT,13461,-0.448913,-0.164003,-9.52054,0.000532632,-0.00798948,0.00439422,301.9,13454246,-0.429759,-0.0658405,-9.57441,-0.0041279,-0.000532632,0.0117179,301.837,13471927,-0.492008,-0.223858,-9.64265,-0.00399474,0.00972054,-0.00226369,303.65,13467209,-0.438139,-0.155623,-9.7037,-0.00439422,-0.000399474,0.0127832,299.962,13454963,34.3369,98008.9,33.705,98011.5,34.3301,98026.6,34.4426,98033,0,0,0,0,0,0,-0.484826,-0.215478,-9.75039,0,0,0,0,-0,0,0,0,0,0,0,0,0,0,0,0,0,0,0,0,0,0,0,0,ACC_HOLD_NOT_ELAPSED,0
13477,INIT,13477,-0.408211,-0.153229,-9.59357,0.00319579,-0.00279632,-0.00612527,301.837,13470592,-0.508768,-0.171185,-9.52892,0.00279632,0.000399474,0.00253,301.962,13488238,-0.457293,-0.135272,-9.58519,0.00359527,-0.00372843,0.00106526,303.837,13483363,-0.464475,-0.191536,-9.67377,-0.00998685,-0.00199737,-0.000798948,299.712,13471093,34.3415,98003.5,33.7097,98012.6,34.3347,98025.2,34.4472,98032.2,0,0,0,0,0,0,-0.428562,-0.136469,-9.73961,0,0,0,0,-0,0,0,0,0,0,0,0,0,0,0,0,0,0,0,0,0,0,0,0,ACC_HOLD_NOT_ELAPSED,0
13493,INIT,13493,-0.480037,-0.0454898,-9.50977,0.00199737,-0.00359527,-0.00452737,301.775,13486469,-0.519542,-0.120907,-9.58519,0.00426106,0.00213053,0.00066579,302.15,13504235,-0.5782,-0.131681,-9.61033,-0.00466053,0.00692422,0.0233027,303.775,13499360,-0.407014,-0.1652,-9.65462,0.00066579,-0.00479369,0.00878843,299.837,13487222,34.3415,98003.5,33.7097,98012.6,34.3347,98025.2,34.4472,98032.2,0,0,0,0,0,0,-0.410606,-0.123301,-9.60673,0,0,0,0,-0,0,0,0,0,0,0,0,0,0,0,0,0,0,0,0,0,0,0,0,ACC_HOLD_NOT_ELAPSED,0
13509,INIT,13509,-0.40462,-0.132878,-9.52773,0.00439422,0.00585895,0.0015979,301.65,13502347,-0.457293,-0.0766145,-9.58399,-0.01012,-0.000798948,0.00679106,302.025,13520077,-0.512359,-0.138864,-9.56603,0.000266316,0.0066579,0.0129163,303.9,13515202,-0.45011,-0.107739,-9.75039,0.00106526,0.00199737,-0.0105195,299.962,13503039,34.3415,98003.5,33.7097,98012.6,34.3347,98025.2,34.4472,98032.2,0,0,0,0,0,0,-0.428562,-0.023942,-9.61631,0,0,0,0,-0,0,0,0,0,0,0,0,0,0,0,0,0,0,0,0,0,0,0,0,ACC_HOLD_NOT_ELAPSED,0
13525,INIT,13525,-0.483629,-0.0993594,-9.63068,0.000133158,0.00199737,0.00066579,301.775,13518224,-0.475249,-0.113725,-9.60075,-0.00612527,-0.00452737,0.00692422,301.9,13535918,-0.463278,-0.106542,-9.66539,0.00213053,0.000932106,0.00253,303.9,13531043,-0.433351,-0.150835,-9.72166,-0.00972054,-0.00199737,0.000532632,299.837,13518856,34.3415,98003.5,33.7097,98012.6,34.3347,98025.2,34.4472,98032.2,0,0,0,0,0,0,-0.501585,-0.0814029,-9.85094,0,0,0,0,-0,0,0,0,0,0,0,0,0,0,0,0,0,0,0,0,0,0,0,0,ACC_HOLD_NOT_ELAPSED,0
13541,INIT,13541,-0.411803,-0.0909797,-9.56484,0.00226369,-0.00346211,0.0041279,301.65,13534570,-0.551863,-0.142455,-9.52294,-0.00106526,0.00133158,0.00892159,302.025,13552229,-0.52433,-0.071826,-9.64744,-0.00292948,0.00932106,-0.00585895,303.712,13547354,-0.466869,-0.120907,-9.75757,-0.00173105,-0.00133158,-0.00346211,299.837,13534609,34.3042,98006.1,33.6628,98012.5,34.2926,98027.9,34.4054,98028.9,0,0,0,0,0,0,-0.466869,-0.120907,-9.75757,0,0,0,0,-0,0,0,0,0,0,0,0,0,0,0,0,0,0,0,0,0,0,0,0,ACC_HOLD_NOT_ELAPSED,0
13557,INIT,13557,-0.430956,-0.131681,-9.54688,-0.00279632,-0.00066579,0.00133158,301.962,13550603,-0.574608,-0.137667,-9.64265,-0.00479369,-0.0111853,0.00838896,301.9,13568226,-0.476446,-0.112527,-9.5816,-0.0102532,0.00772317,-0.0137153,303.712,13563351,-0.430956,-0.171185,-9.76834,-0.000399474,0.00146474,0.00133158,300.025,13551207,34.3042,98006.1,33.6628,98012.5,34.2926,98027.9,34.4054,98028.9,0,0,0,0,0,0,-0.390255,-0.131681,-9.65821,0,0,0,0,-0,0,0,0,0,0,0,0,0,0,0,0,0,0,0,0,0,0,0,0,ACC_HOLD_NOT_ELAPSED,0
13630,INIT,13630,-0.459687,0.0287304,-9.68095,0.00625843,-0.000532632,-0.00705738,301.775,13623303,-0.51595,-0.12809,-9.54089,-0.00466053,-0.00332895,0.00226369,301.962,13640683,-0.506374,-0.211887,-9.61152,-0.00186421,0.00186421,0.000399474,303.9,13635652,-0.408211,-0.0873884,-9.67617,-0.000532632,-0.00625843,0.00173105,299.837,13623954,34.2762,98005.6,33.644,98014.2,34.2692,98032.4,34.3822,98033.9,0,0,0,0,0,0,-0.397437,-0.171185,-9.68574,0,0,0,0,-0,0,0,0,0,0,0,0,0,0,0,0,0,0,0,0,0,0,0,0,ACC_HOLD_NOT_ELAPSED,0
13651,INIT,13651,-0.470461,-0.0682347,-9.59117,0.00439422,-0.0015979,-0.00146474,301.65,13643900,-0.580594,-0.0826,-9.59596,-0.00452737,0.00732369,0.00639159,301.837,13661336,-0.536301,-0.186748,-9.60793,-0.00346211,-0.00585895,0.0106526,303.712,13656305,-0.454898,-0.135272,-9.69532,-0.00559264,0.00332895,0.0041279,299.837,13643926,34.2762,98005.6,33.644,98014.2,34.2692,98032.4,34.3822,98033.9,0,0,0,0,0,0,-0.454898,-0.135272,-9.69532,0,0,0,0,-0,0,0,0,0,0,0,0,0,0,0,0,0,0,0,0,0,0,0,0,ACC_HOLD_NOT_ELAPSED,0
13671,INIT,13671,-0.45011,-0.131681,-9.55406,0.00133158,0.000133158,-0.00452737,301.9,13664496,-0.464475,-0.183156,-9.61631,-0.00958738,0.00306264,-0.000932106,301.837,13681990,-0.460884,-0.125696,-9.60075,-0.00452737,0.0122505,-0.00199737,303.9,13676958,-0.418985,-0.0933739,-9.7049,0.00292948,0.00266316,-0.00612527,299.962,13664554,34.2762,98005.6,33.644,98014.2,34.2692,98032.4,34.3822,98033.9,0,0,0,0,0,0,-0.389058,-0.12809,-9.70729,0,0,0,0,-0,0,0,0,0,0,0,0,0,0,0,0,0,0,0,0,0,0,0,0,ACC_HOLD_NOT_ELAPSED,0
13703,INIT,13703,-0.460884,-0.141258,-9.67976,0.00972054,-0.00266316,0.00559264,301.712,13695782,-0.480037,-0.137667,-9.57681,-0.00599211,-0.0181095,0.0066579,301.962,13713204,-0.497994,-0.0933739,-9.69771,-0.000399474,0.00439422,-0.0098537,303.712,13708173,-0.407014,-0.162806,-9.77553,0.00372843,0.00492685,-0.00266316,300.025,13695844,34.2622,98007.8,33.6253,98011.1,34.2598,98030.9,34.3682,98030.2,0,0,0,0,0,0,-0.407014,-0.162806,-9.77553,0,0,0,0,-0,0,0,0,0,0,0,0,0,0,0,0,0,0,0,0,0,0,0,0,ACC_HOLD_NOT_ELAPSED,0
13735,INIT,13735,-0.380678,-0.0766145,-9.6642,0.00652474,0.0082558,0.00106526,301.962,13727537,-0.502782,-0.0814029,-9.5804,-0.00785633,0.000133158,0.00439422,301.9,13745043,-0.465672,-0.19393,-9.62948,-0.000532632,0.00612527,0.0131826,303.712,13739856,-0.474052,-0.100556,-9.67736,-0.00785633,0.00372843,-0.00119842,299.837,13728195,34.2902,98005.3,33.6675,98013.6,34.2973,98027.8,34.41,98030.5,0,0,0,0,0,0,-0.389058,-0.0921768,-9.63187,0,0,0,0,-0,0,0,0,0,0,0,0,0,0,0,0,0,0,0,0,0,0,0,0,ACC_HOLD_NOT_ELAPSED,0
13756,INIT,13756,-0.456095,-0.112527,-9.56124,-0.00479369,-0.00319579,0.00386158,301.65,13748758,-0.490811,-0.148441,-9.57681,-0.0125169,-0.0105195,0.00559264,302.087,13766165,-0.514753,-0.143652,-9.64863,-0.00439422,0.00892159,-0.00865527,303.775,13760978,-0.418985,-0.150835,-9.64504,0.00133158,-0.00292948,0.000932106,299.962,13749357,34.3135,98005.3,33.6909,98016.6,34.3113,98026.7,34.424,98033.6,0,0,0,0,0,0,-0.447716,-0.0957681,-9.64863,0,0,0,0,-0,0,0,0,0,0,0,0,0,0,0,0,0,0,0,0,0,0,0,0,ACC_HOLD_NOT_ELAPSED,0
13788,INIT,13788,-0.460884,-0.0550666,-9.52294,-0.00452737,0.01012,0.00759001,301.65,13780825,-0.462081,-0.147243,-9.6211,-0.00719053,-0.00639159,0.0057258,301.962,13798317,-0.527921,-0.0981623,-9.68095,-0.00199737,0.0115848,-0.0117179,303.712,13793129,-0.418985,-0.214281,-9.6199,-0.00359527,-0.0041279,-0.00066579,299.962,13781616,34.3322,98004.9,33.6956,98010.6,34.3207,98025.7,34.4333,98029.7,0,0,0,0,0,0,-0.439336,-0.0909797,-9.68335,0,0,0,0,-0,0,0,0,0,0,0,0,0,0,0,0,0,0,0,0,0,0,0,0,ACC_HOLD_NOT_ELAPSED,0
13821,INIT,13821,-0.446519,-0.138864,-9.55406,0.000266316,-0.00066579,0.00506001,301.587,13813517,-0.454898,-0.107739,-9.63187,-0.00492685,0.00519316,-0.00932106,302.025,13830937,-0.548272,0.0035913,-9.63187,0.00426106,-0.00066579,0.00319579,303.9,13825750,-0.462081,-0.136469,-9.73961,-0.00359527,0.00173105,-0.000266316,299.837,13814436,34.3555,98004.9,33.719,98013.5,34.3441,98021.9,34.4565,98031.9,0,0,0,0,0,0,-0.411803,-0.196325,-9.7444,0,0,0,0,-0,0,0,0,0,0,0,0,0,0,0,0,0,0,0,0,0,0,0,0,ACC_HOLD_NOT_ELAPSED,0
13839,INIT,13839,-0.4956,-0.035913,-9.59237,0.00479369,-0.000399474,-0.00359527,301.65,13830957,-0.492008,-0.169988,-9.62589,-0.00812264,0.00066579,-0.00386158,302.087,13848530,-0.538695,-0.197522,-9.57322,-0.00892159,-0.00119842,-0.00372843,304.087,13843310,-0.459687,-0.216675,-9.69053,0.00599211,0.00372843,0.00346211,300.025,13831751,34.3555,98004.9,33.719,98013.5,34.3441,98021.9,34.4565,98031.9,0,0,0,0,0,0,-0.347159,-0.0658405,-9.7037,0,0,0,0,-0,0,0,0,0,0,0,0,0,0,0,0,0,0,0,0,0,0,0,0,ACC_HOLD_NOT_ELAPSED,0
13856,INIT,13856,-0.413,-0.122104,-9.51575,0.00266316,0.00106526,0.00106526,301.712,13848241,-0.457293,-0.282516,-9.52653,-0.00812264,0.000399474,0.0127832,301.962,13865873,-0.509965,-0.227449,-9.59716,-0.00279632,-0.00279632,0.00452737,303.65,13860622,-0.430956,-0.191536,-9.67497,-0.000532632,-0.00213053,-0.00506001,300.087,13848285,34.3555,98004.9,33.719,98013.5,34.3441,98021.9,34.4565,98031.9,0,0,0,0,0,0,-0.430956,-0.191536,-9.67497,0,0,0,0,-0,0,0,0,0,0,0,0,0,0,0,0,0,0,0,0,0,0,0,0,ACC_HOLD_NOT_ELAPSED,0
13873,INIT,13873,-0.432153,-0.0670376,-9.63068,0.0015979,0.0125169,0.00066579,301.837,13865055,-0.475249,-0.113725,-9.63786,-0.00692422,0.0057258,-0.00599211,301.962,13882748,-0.530316,-0.123301,-9.55406,0.00492685,-0.00532632,-0.00359527,303.587,13877497,-0.488417,-0.0993594,-9.78869,-0.00479369,0.00892159,-0.00466053,299.837,13865665,34.3555,98004.9,33.719,98013.5,34.3441,98021.9,34.4565,98031.9,0,0,0,0,0,0,-0.460884,-0.105345,-9.70969,0,0,0,0,-0,0,0,0,0,0,0,0,0,0,0,0,0,0,0,0,0,0,0,0,ACC_HOLD_NOT_ELAPSED,0
13889,INIT,13889,-0.502782,-0.0909797,-9.61152,0.00066579,-0.0015979,0.00532632,301.962,13881714,-0.45849,-0.225055,-9.62948,-0.00772317,-0.00545948,-0.000133158,301.962,13899467,-0.536301,-0.136469,-9.61392,-0.00878843,-0.00359527,-0.00199737,303.712,13894059,-0.493206,-0.105345,-9.7444,-0.00332895,-0.00253,-0.000266316,299.837,13882075,34.3555,98004.9,33.719,98013.5,34.3441,98021.9,34.4565,98031.9,0,0,0,0,0,0,-0.439336,-0.0514753,-9.71447,0,0,0,0,-0,0,0,0,0,0,0,0,0,0,0,0,0,0,0,0,0,0,0,0,ACC_HOLD_NOT_ELAPSED,0
13905,INIT,13905,-0.465672,-0.0454898,-9.56005,0.0041279,-0.00519316,0.00692422,301.587,13897747,-0.537498,-0.0766145,-9.61751,-0.00998685,-0.00878843,0.0111853,301.837,13915561,-0.538695,-0.132878,-9.64624,-0.00399474,0.00306264,-0.00466053,304.025,13910153,-0.45849,-0.0957681,-9.66779,-0.00279632,0.00266316,0.00239685,299.9,13898108,34.3135,98003.6,33.6815,98010.3,34.316,98031.3,34.41,98029.9,0,0,0,0,0,0,-0.440533,-0.071826,-9.68095,0,0,0,0,-0,0,0,0,0,0,0,0,0,0,0,0,0,0,0,0,0,0,0,0,ACC_HOLD_NOT_ELAPSED,0
13921,INIT,13921,-0.435745,-0.0873884,-9.63786,0.00625843,0.00199737,0.00812264,301.775,13913312,-0.466869,-0.118513,-9.57322,-0.00932106,-0.00399474,-0.000266316,302.025,13931342,-0.526724,-0.152032,-9.62828,-0.000399474,-0.00066579,0.0201069,303.9,13925778,-0.4956,-0.187945,-9.63666,-0.00612527,-0.00958738,-0.00998685,300.087,13913517,34.3229,98004.5,33.6909,98013.6,34.3254,98031,34.4333,98027.9,0,0,0,0,0,0,-0.447716,-0.143652,-9.68933,0,0,0,0,-0,0,0,0,0,0,0,0,0,0,0,0,0,0,0,0,0,0,0,0,ACC_HOLD_NOT_ELAPSED,0
13941,INIT,13941,-0.503979,-0.129287,-9.59357,-0.010919,-0.00426106,0.00506001,301.837,13933596,-0.544681,-0.15682,-9.6223,-0.00612527,0.00785633,0.0041279,301.837,13951655,-0.543484,-0.131681,-9.56124,-0.00106526,0.00066579,-0.00279632,303.775,13946247,-0.447716,-0.101754,-9.72285,-0.00745685,-0.00106526,0.00545948,299.962,13933645,34.3322,98006.6,33.705,98015.6,34.3441,98029.7,34.4426,98029.4,0,0,0,0,0,0,-0.447716,-0.101754,-9.72285,0,0,0,0,-0,0,0,0,0,0,0,0,0,0,0,0,0,0,0,0,0,0,0,0,ACC_HOLD_NOT_ELAPSED,0
13960,INIT,13960,-0.418985,-0.142455,-9.61871,0.00692422,-0.00426106,-0.0082558,301.9,13953412,-0.454898,-0.137667,-9.60913,-0.000798948,-0.00372843,0.00545948,302.275,13971498,-0.457293,-0.184354,-9.63906,0.00932106,0.000399474,0.00319579,303.712,13965934,-0.37589,-0.114922,-9.58279,-0.00226369,0.00146474,0.000399474,299.712,13953304,34.3415,97999.3,33.7144,98009.5,34.3441,98026.7,34.4519,98028.5,0,0,0,0,0,0,-0.37589,-0.114922,-9.58279,0,0,0,0,-0,0,0,0,0,0,0,0,0,0,0,0,0,0,0,0,0,0,0,0,ACC_HOLD_NOT_ELAPSED,0
13978,INIT,13978,-0.399832,-0.0454898,-9.54927,0.00253,0.00359527,0.00852212,301.65,13971509,-0.548272,-0.140061,-9.59596,0.00119842,0.00759001,0.00892159,302.025,13989623,-0.52433,-0.141258,-9.663,-0.000133158,0.0015979,-0.0182427,304.087,13983903,-0.429759,-0.181959,-9.67018,-0.00279632,0.00146474,0.00146474,299.9,13970932,34.3415,97999.3,33.7144,98009.5,34.3441,98026.7,34.4519,98028.5,0,0,0,0,0,0,-0.429759,-0.181959,-9.67018,0,0,0,0,-0,0,0,0,0,0,0,0,0,0,0,0,0,0,0,0,0,0,0,0,ACC_HOLD_NOT_ELAPSED,0
13995,INIT,13995,-0.384269,-0.0179565,-9.53611,0.000532632,0.00213053,-0.000798948,301.9,13990451,-0.544681,-0.125696,-9.60673,-0.00319579,-0.00239685,0.00346211,301.962,14008373,-0.54109,-0.147243,-9.58279,-0.0098537,0.0114516,-0.0119842,303.65,14002341,-0.408211,-0.168791,-9.71687,-0.00439422,-0.0057258,0.00545948,299.962,13988748,34.3415,97999.3,33.7144,98009.5,34.3441,98026.7,34.4519,98028.5,0,0,0,0,0,0,-0.408211,-0.168791,-9.71687,0,0,0,0,-0,0,0,0,0,0,0,0,0,0,0,0,0,0,0,0,0,0,0,0,ACC_HOLD_NOT_ELAPSED,0
14011,INIT,14011,-0.434548,-0.138864,-9.68814,0.000798948,-0.00346211,0.00186421,301.837,14008626,-0.514753,-0.118513,-9.57441,-0.00106526,-0.00426106,-0.00812264,302.025,14025561,-0.501585,-0.187945,-9.61511,-0.00332895,0.00865527,0.00812264,303.587,14019372,-0.381875,-0.23104,-9.67257,-0.0057258,-0.0041279,0.00146474,299.837,14005155,34.3415,97999.3,33.7144,98009.5,34.3441,98026.7,34.4519,98028.5,0,0,0,0,0,0,-0.472855,-0.201113,-9.73363,0,0,0,0,-0,0,0,0,0,0,0,0,0,0,0,0,0,0,0,0,0,0,0,0,ACC_HOLD_NOT_ELAPSED,0
14027,INIT,14027,-0.44173,-0.160412,-9.61152,0.0114516,0.00066579,0.00506001,301.9,14025492,-0.501585,-0.143652,-9.64384,-0.00918791,0.00213053,0.00918791,302.087,14041655,-0.525527,-0.178368,-9.56962,-0.000798948,-0.000399474,0.0237021,303.775,14035309,-0.379481,-0.174777,-9.71926,-0.00133158,-0.00253,-0.00332895,300.087,14020780,34.3229,98006.3,33.6909,98014.8,34.3113,98026.7,34.4333,98032.1,0,0,0,0,0,0,-0.472855,-0.201113,-9.73363,0,0,0,0,-0,0,0,0,0,0,0,0,0,0,0,0,0,0,0,0,0,0,0,0,ACC_HOLD_NOT_ELAPSED,0
14043,INIT,14043,-0.513556,0.0251391,-9.76355,-0.00719053,0.00625843,-0.00146474,301.775,14042297,-0.539892,-0.0143652,-9.68694,0.000266316,-0.00639159,0.00372843,301.962,14057748,-0.582988,-0.071826,-9.75158,0.00213053,0.0015979,0.00519316,303.9,14051403,-0.512359,0.094571,-9.67617,-0.00492685,-0.00173105,0.000932106,299.9,14036717,34.3229,98006.3,33.6909,98014.8,34.3113,98026.7,34.4333,98032.1,0,0,0,0,0,0,-0.472855,-0.201113,-9.73363,0,0,0,0,-0,0,0,0,0,0,0,0,0,0,0,0,0,0,0,0,0,0,0,0,ACC_HOLD_NOT_ELAPSED,0
14059,INIT,14059,-0.447716,-0.11133,-9.61392,0.00732369,-0.00745685,-0.000532632,302.025,14058483,-0.509965,-0.100556,-9.50857,-0.0137153,-0.00199737,-0.00319579,302.087,14073373,-0.470461,-0.00837971,-9.68455,-0.000266316,0.0041279,0.00279632,303.775,14067028,-0.434548,-0.0514753,-9.68574,0.00199737,-0.00173105,0.00466053,300.025,14052030,34.3229,98006.3,33.6909,98014.8,34.3113,98026.7,34.4333,98032.1,0,0,0,0,0,0,-0.472855,-0.201113,-9.73363,0,0,0,0,-0,0,0,0,0,0,0,0,0,0,0,0,0,0,0,0,0,0,0,0,ACC_HOLD_NOT_ELAPSED,0
14075,INIT,14075,-0.392649,-0.101754,-9.63307,-0.00173105,-0.0015979,-0.00705738,301.837,14074334,-0.506374,-0.152032,-9.59955,-0.00492685,0.00399474,0.00319579,301.962,14089311,-0.459687,-0.142455,-9.63307,0.00359527,0.0066579,0.00852212,303.9,14082966,-0.493206,-0.0514753,-9.7049,-0.00292948,0.000798948,-0.00492685,299.962,14067655,34.3229,98006.3,33.6909,98014.8,34.3113,98026.7,34.4333,98032.1,0,0,0,0,0,0,-0.472855,-0.201113,-9.73363,0,0,0,0,-0,0,0,0,0,0,0,0,0,0,0,0,0,0,0,0,0,0,0,0,ACC_HOLD_NOT_ELAPSED,0
14091,INIT,14091,-0.45011,-0.130484,-9.60195,0.0125169,0.00253,0.00559264,301.587,14090632,-0.488417,-0.104148,-9.60554,-0.00479369,-0.00239685,0.00932106,301.837,14105561,-0.481235,-0.147243,-9.68694,-0.000133158,0.00852212,0.0122505,303.9,14099216,-0.484826,-0.162806,-9.6211,0.00838896,0.00266316,0.00785633,299.962,14083748,34.3042,98006.7,33.6722,98011.1,34.302,98025.2,34.424,98033.6,0,0,0,0,0,0,-0.472855,-0.201113,-9.73363,0,0,0,0,-0,0,0,0,0,0,0,0,0,0,0,0,0,0,0,0,0,0,0,0,ACC_HOLD_NOT_ELAPSED,0
14107,INIT,14107,-0.453701,-0.0371101,-9.65821,0.0015979,0.0107858,0.00386158,301.65,14105750,-0.519542,-0.101754,-9.55406,0.00359527,-0.00452737,-0.00359527,301.962,14120873,-0.4956,-0.12809,-9.6223,-0.00585895,-0.00625843,0.013449,303.837,14114528,-0.390255,-0.164003,-9.65103,-0.00292948,-0.00745685,0.00466053,299.962,14101241,34.3042,98006.7,33.6722,98011.1,34.302,98025.2,34.424,98033.6,0,0,0,0,0,0,-0.390255,-0.164003,-9.65103,0,0,0,0,-0,0,0,0,0,0,0,0,0,0,0,0,0,0,0,0,0,0,0,0,ACC_HOLD_NOT_ELAPSED,0
14124,INIT,14124,-0.413,-0.0957681,-9.52892,0.00386158,-0.00199737,-0.00359527,301.65,14120982,-0.4956,-0.201113,-9.56603,-0.0122505,0.00492685,0.00213053,302.087,14136498,-0.488417,-0.138864,-9.64265,-0.00386158,-0.000932106,0.00466053,303.775,14130622,-0.35913,-0.205901,-9.71567,-0.00745685,0.00146474,-0.000399474,300.025,14118319,34.3042,98006.7,33.6722,98011.1,34.302,98025.2,34.424,98033.6,0,0,0,0,0,0,-0.35913,-0.205901,-9.71567,0,0,0,0,-0,0,0,0,0,0,0,0,0,0,0,0,0,0,0,0,0,0,0,0,ACC_HOLD_NOT_ELAPSED,0
14144,INIT,14144,-0.51595,-0.0550666,-9.62948,0.00133158,-0.00226369,0.00932106,301.9,14139366,-0.4956,-0.143652,-9.56124,-0.00652474,-0.000798948,0.00386158,302.025,14155248,-0.530316,-0.094571,-9.61751,0.00759001,0.00479369,-0.00705738,303.712,14149528,-0.37589,-0.071826,-9.61392,-0.0169111,0.00119842,0.00426106,300.4,14137922,34.3042,98006.7,33.6722,98011.1,34.302,98025.2,34.424,98033.6,0,0,0,0,0,0,-0.37589,-0.071826,-9.61392,0,0,0,0,-0,0,0,0,0,0,0,0,0,0,0,0,0,0,0,0,0,0,0,0,ACC_HOLD_NOT_ELAPSED,0
14164,INIT,14164,-0.483629,-0.124498,-9.58399,0.00892159,0.00759001,0.00532632,301.65,14157744,-0.447716,-0.180762,-9.56603,-0.00332895,0.000133158,-0.00253,302.087,14173998,-0.548272,-0.122104,-9.59716,-0.000532632,0.01012,0.0225037,303.9,14168591,-0.423774,-0.0622492,-9.68694,0.0057258,0.00239685,-0.01012,299.962,14157272,34.2996,98006.8,33.6581,98012.1,34.2926,98028.5,34.3961,98028.6,0,0,0,0,0,0,-0.423774,-0.0622492,-9.68694,0,0,0,0,-0,0,0,0,0,0,0,0,0,0,0,0,0,0,0,0,0,0,0,0,ACC_HOLD_NOT_ELAPSED,0
14186,INIT,14186,-0.325611,-0.0694318,-9.58399,0.00545948,-0.00599211,0.00386158,301.9,14179246,-0.456095,-0.102951,-9.67736,-0.0150469,-0.00452737,0.00253,301.962,14195717,-0.494403,-0.101754,-9.61631,0.0015979,0.00439422,0.0146474,303.9,14190309,-0.438139,-0.0981623,-9.71687,-0.00306264,0.00332895,0.00266316,299.837,14179123,34.2996,98006.8,33.6581,98012.1,34.2926,98028.5,34.3961,98028.6,0,0,0,0,0,0,-0.438139,-0.0981623,-9.71687,0,0,0,0,-0,0,0,0,0,0,0,0,0,0,0,0,0,0,0,0,0,0,0,0,ACC_HOLD_NOT_ELAPSED,0
14209,INIT,14209,-0.414197,-0.159214,-9.61751,0.0117179,-0.00266316,0.00439422,301.775,14201842,-0.514753,-0.140061,-9.69293,-0.00479369,0.000133158,0.00892159,302.337,14218530,-0.501585,-0.0670376,-9.54808,-0.00705738,0.00519316,0.00599211,303.587,14213122,-0.368707,-0.203507,-9.71567,0.0041279,-0.00625843,0.00492685,299.962,14201754,34.2996,98006.8,33.6581,98012.1,34.2926,98028.5,34.3961,98028.6,0,0,0,0,0,0,-0.368707,-0.203507,-9.71567,0,0,0,0,-0,0,0,0,0,0,0,0,0,0,0,0,0,0,0,0,0,0,0,0,ACC_HOLD_NOT_ELAPSED,0
14231,INIT,14231,-0.521936,-0.110133,-9.59357,-0.00319579,0.000932106,-0.000798948,301.837,14224125,-0.51595,-0.0802058,-9.61033,-0.0066579,0.000133158,0.00492685,301.837,14240873,-0.465672,-0.0837971,-9.67377,0.000798948,0.0129163,0.00559264,303.9,14235466,-0.385466,-0.184354,-9.70729,-0.00106526,-0.00106526,-0.000133158,300.025,14224230,34.2996,98006.8,33.6581,98012.1,34.2926,98028.5,34.3961,98028.6,0,0,0,0,0,0,-0.385466,-0.184354,-9.70729,0,0,0,0,-0,0,0,0,0,0,0,0,0,0,0,0,0,0,0,0,0,0,0,0,ACC_HOLD_NOT_ELAPSED,0
14253,INIT,14253,-0.535104,-0.0670376,-9.68335,-0.00066579,0.00292948,-0.00639159,301.65,14246565,-0.489614,-0.161609,-9.54089,0.000532632,-0.00359527,0.00066579,302.087,14263530,-0.553061,-0.125696,-9.58878,-0.00133158,0.0066579,-0.0110521,303.837,14257966,-0.508768,-0.0694318,-9.72166,0.000532632,0.000532632,0.00532632,300.025,14246517,34.2809,98003.8,33.6534,98012.2,34.2879,98031.1,34.3915,98030,0,0,0,0,0,0,-0.508768,-0.0694318,-9.72166,0,0,0,0,-0,0,0,0,0,0,0,0,0,0,0,0,0,0,0,0,0,0,0,0,ACC_HOLD_NOT_ELAPSED,0
14274,INIT,14274,-0.560243,-0.125696,-9.6223,0.00719053,0.00332895,0.00479369,301.837,14267599,-0.499191,-0.153229,-9.67497,-0.00279632,-0.00173105,0.00199737,301.962,14284623,-0.474052,-0.106542,-9.63068,-0.00186421,0.00346211,-0.0189084,303.9,14279059,-0.459687,-0.174777,-9.72405,0.000932106,0.00439422,-0.00506001,300.087,14267430,34.3042,98003.8,33.6769,98013.4,34.3067,98029.2,34.4193,98033.8,0,0,0,0,0,0,-0.459687,-0.174777,-9.72405,0,0,0,0,-0,0,0,0,0,0,0,0,0,0,0,0,0,0,0,0,0,0,0,0,ACC_HOLD_NOT_ELAPSED,0
14294,INIT,14294,-0.430956,-0.0766145,-9.54089,0.00599211,-0.000133158,0.00479369,301.9,14287382,-0.517148,-0.169988,-9.61751,-0.00492685,0.00426106,0.00426106,302.025,14304623,-0.440533,-0.12809,-9.55526,-0.00119842,-0.00559264,-0.00226369,303.962,14298903,-0.391452,-0.141258,-9.67617,-0.00932106,-0.00346211,0.00639159,299.837,14287093,34.3229,98003.9,33.6909,98013.6,34.3254,98031.6,34.4333,98031.5,0,0,0,0,0,0,-0.391452,-0.141258,-9.67617,0,0,0,0,-0,0,0,0,0,0,0,0,0,0,0,0,0,0,0,0,0,0,0,0,ACC_HOLD_NOT_ELAPSED,0
14310,INIT,14310,-0.439336,-0.11133,-9.67138,0.00319579,0.00759001,0.0141148,301.837,14304978,-0.42138,-0.132878,-9.56484,-0.00213053,-0.00519316,0.00452737,302.15,14322123,-0.5782,-0.0766145,-9.58519,-0.00186421,-0.00625843,-0.000798948,303.837,14316247,-0.448913,-0.113725,-9.76715,-0.00066579,-0.00798948,0.00292948,299.962,14304256,34.3462,98003.9,33.705,98010.3,34.3441,98031.5,34.4472,98029.9,0,0,0,0,0,0,-0.448913,-0.113725,-9.76715,0,0,0,0,-0,0,0,0,0,0,0,0,0,0,0,0,0,0,0,0,0,0,0,0,ACC_HOLD_NOT_ELAPSED,0
14326,INIT,14326,-0.432153,-0.100556,-9.59835,-0.00426106,-0.00226369,-0.000798948,301.837,14320543,-0.527921,-0.105345,-9.6642,-0.00612527,-0.00146474,-0.000266316,302.15,14337748,-0.474052,-0.0826,-9.68095,-0.00519316,0,-0.00492685,303.775,14331716,-0.452504,-0.120907,-9.75996,0.00439422,0.00332895,0,299.962,14319700,34.3462,98003.9,33.705,98010.3,34.3441,98031.5,34.4472,98029.9,0,0,0,0,0,0,-0.452504,-0.120907,-9.75996,0,0,0,0,-0,0,0,0,0,0,0,0,0,0,0,0,0,0,0,0,0,0,0,0,ACC_HOLD_NOT_ELAPSED,0
14343,INIT,14343,-0.459687,-0.0383072,-9.60195,0.00186421,0.00386158,0.00292948,301.9,14338796,-0.466869,-0.0275333,-9.5804,-0.0015979,0.00133158,0.0155795,302.025,14355873,-0.477643,-0.125696,-9.64265,-0.000532632,0.00226369,0.00519316,303.775,14349841,-0.438139,-0.0634463,-9.68933,0.00705738,0.00119842,0.00466053,299.837,14337741,34.3462,98003.9,33.705,98010.3,34.3441,98031.5,34.4472,98029.9,0,0,0,0,0,0,-0.438139,-0.0634463,-9.68933,0,0,0,0,-0,0,0,0,0,0,0,0,0,0,0,0,0,0,0,0,0,0,0,0,ACC_HOLD_NOT_ELAPSED,0
14361,INIT,14361,-0.414197,-0.0897826,-9.60314,0.0057258,-0.00279632,0.00439422,301.837,14356268,-0.484826,-0.171185,-9.65342,0.00452737,0.00186421,0.00545948,301.962,14373373,-0.497994,-0.102951,-9.63427,-0.00639159,0.0015979,0.00133158,303.775,14367341,-0.397437,-0.164003,-9.62948,-0.00998685,-0.00545948,0.00479369,299.712,14355156,34.3462,98003.9,33.705,98010.3,34.3441,98031.5,34.4472,98029.9,0,0,0,0,0,0,-0.397437,-0.164003,-9.62948,0,0,0,0,-0,0,0,0,0,0,0,0,0,0,0,0,0,0,0,0,0,0,0,0,ACC_HOLD_NOT_ELAPSED,0
14380,INIT,14380,-0.460884,-0.180762,-9.61631,0.0141148,-0.00479369,0.00253,301.837,14374521,-0.468066,-0.12809,-9.55047,-0.0142479,-0.00639159,0.0041279,301.962,14391967,-0.512359,-0.0646434,-9.61033,0.00332895,-0.00066579,-0.000798948,303.9,14385934,-0.465672,-0.124498,-9.70131,-0.00479369,0.00545948,-0.00386158,300.4,14374134,34.3182,98003.4,33.6815,98010.9,34.316,98027.1,34.424,98026.5,0,0,0,0,0,0,-0.465672,-0.124498,-9.70131,0,0,0,0,-0,0,0,0,0,0,0,0,0,0,0,0,0,0,0,0,0,0,0,0,ACC_HOLD_NOT_ELAPSED,0
14401,INIT,14401,-0.361524,-0.0658405,-9.54688,0.00945422,-0.00785633,0.00439422,301.65,14395274,-0.476446,-0.136469,-9.61751,0.000798948,-0.000266316,-0.00719053,301.9,14412748,-0.503979,-0.198719,-9.54449,-0.00279632,0.00133158,0.00106526,304.087,14406872,-0.389058,-0.181959,-9.75278,-0.00199737,-0.00945422,-0.00399474,299.837,14395143,34.3182,98003.4,33.6815,98010.9,34.316,98027.1,34.424,98026.5,0,0,0,0,0,0,-0.389058,-0.181959,-9.75278,0,0,0,0,-0,0,0,0,0,0,0,0,0,0,0,0,0,0,0,0,0,0,0,0,ACC_HOLD_NOT_ELAPSED,0
14418,INIT,14418,-0.468066,-0.035913,-9.64744,0.0066579,-0.0015979,0.00386158,301.9,14411776,-0.550666,-0.167594,-9.55646,-0.00266316,-0.000532632,-0.00466053,302.087,14429467,-0.493206,-0.168791,-9.5792,0,0.00519316,0.00346211,303.962,14423434,-0.496797,-0.143652,-9.6642,-0.000532632,-0.00292948,-0.00146474,299.837,14411805,34.3182,98003.4,33.6815,98010.9,34.316,98027.1,34.424,98026.5,0,0,0,0,0,0,-0.496797,-0.143652,-9.6642,0,0,0,0,-0,0,0,0,0,0,0,0,0,0,0,0,0,0,0,0,0,0,0,0,ACC_HOLD_NOT_ELAPSED,0
14434,INIT,14434,-0.447716,-0.190339,-9.61152,-0.00106526,0.00399474,0.000133158,301.712,14428278,-0.407014,-0.178368,-9.50378,-0.0102532,-0.000798948,0.00253,301.9,14446186,-0.505177,-0.138864,-9.64744,-0.000399474,0.000798948,0.01012,303.587,14440153,-0.418985,-0.196325,-9.6223,-0.00386158,0,-0.00199737,299.962,14428435,34.3182,98003.4,33.6815,98010.9,34.316,98027.1,34.424,98026.5,0,0,0,0,0,0,-0.408211,-0.164003,-9.70969,0,0,0,0,-0,0,0,0,0,0,0,0,0,0,0,0,0,0,0,0,0,0,0,0,ACC_HOLD_NOT_ELAPSED,0
14450,INIT,14450,-0.452504,-0.132878,-9.58399,-0.00253,0.00332895,-0.000798948,301.65,14444155,-0.466869,-0.0730232,-9.60673,-0.00133158,-0.00932106,0.00266316,302.025,14461967,-0.45849,-0.0981623,-9.64504,0.000399474,0.000266316,0.000399474,303.775,14455934,-0.371101,-0.146046,-9.64384,-0.00599211,-0.00452737,0.00585895,299.837,14444160,34.3182,98003.4,33.6815,98010.9,34.316,98027.1,34.424,98026.5,0,0,0,0,0,0,-0.371101,-0.146046,-9.64384,0,0,0,0,-0,0,0,0,0,0,0,0,0,0,0,0,0,0,0,0,0,0,0,0,ACC_HOLD_NOT_ELAPSED,0
14466,INIT,14466,-0.415394,-0.0706289,-9.54329,0.00545948,-0.00559264,0.000399474,301.837,14460033,-0.512359,-0.0981623,-9.55047,-0.00958738,-0.00119842,0.000932106,302.275,14478061,-0.530316,-0.146046,-9.62708,-0.0105195,-0.00213053,-0.00372843,303.712,14471872,-0.454898,-0.0909797,-9.80904,-0.00399474,-0.00199737,-0.00519316,299.9,14460197,34.3089,98004.3,33.6722,98012.9,34.302,98027.6,34.41,98029.9,0,0,0,0,0,0,-0.45011,-0.094571,-9.74919,0,0,0,0,-0,0,0,0,0,0,0,0,0,0,0,0,0,0,0,0,0,0,0,0,ACC_HOLD_NOT_ELAPSED,0
14486,INIT,14486,-0.511162,-0.0754174,-9.62589,-0.00386158,-0.00439422,0.00506001,301.65,14480473,-0.544681,-0.0622492,-9.61871,-0.00878843,-0.000798948,0.00479369,302.15,14498373,-0.508768,-0.216675,-9.60793,-0.0057258,-0.00239685,0.00492685,303.712,14492184,-0.416591,-0.132878,-9.68215,-0.000399474,0.00399474,-0.00585895,299.775,14480549,34.3275,98005.6,33.6956,98013.5,34.3207,98025.7,34.4379,98034.4,0,0,0,0,0,0,-0.416591,-0.132878,-9.68215,0,0,0,0,-0,0,0,0,0,0,0,0,0,0,0,0,0,0,0,0,0,0,0,0,ACC_HOLD_NOT_ELAPSED,0
14506,INIT,14506,-0.529119,-0.110133,-9.56962,0.000532632,-0.00346211,-0.00426106,301.837,14500289,-0.428562,-0.158017,-9.51216,-0.0121174,-0.00785633,0.00239685,302.025,14518373,-0.506374,-0.106542,-9.75996,0.0127832,0.00692422,0.00732369,303.9,14512184,-0.482432,-0.181959,-9.7456,0.00918791,-0.01265,-0.000266316,300.4,14500400,34.3415,98006.4,33.7097,98015.5,34.3347,98026.4,34.4472,98030.5,0,0,0,0,0,0,-0.482432,-0.181959,-9.7456,0,0,0,0,-0,0,0,0,0,0,0,0,0,0,0,0,0,0,0,0,0,0,0,0,ACC_HOLD_NOT_ELAPSED,0
14524,INIT,14524,-0.448913,-0.104148,-9.63068,0.00346211,-0.00346211,0.00972054,301.837,14519010,-0.526724,-0.101754,-9.63427,-0.00745685,-0.000266316,0.00759001,301.962,14537123,-0.459687,-0.172383,-9.63427,-0.00066579,-0.000532632,0.0114516,303.65,14530934,-0.452504,-0.123301,-9.65342,-0.0123837,0.000532632,-0.00119842,299.837,14519034,34.3415,98006.4,33.7097,98015.5,34.3347,98026.4,34.4472,98030.5,0,0,0,0,0,0,-0.452504,-0.123301,-9.65342,0,0,0,0,-0,0,0,0,0,0,0,0,0,0,0,0,0,0,0,0,0,0,0,0,ACC_HOLD_NOT_ELAPSED,0
14542,INIT,14542,-0.429759,-0.0873884,-9.61392,0.000266316,0.00705738,0.00359527,301.9,14537263,-0.53271,-0.0826,-9.53371,-0.00506001,0.00186421,0.00146474,302.15,14555405,-0.584185,-0.146046,-9.58638,0.0015979,0.0103863,0.0106526,303.9,14549216,-0.460884,-0.158017,-9.77433,-0.000399474,-0.0041279,-0.00292948,300.025,14537322,34.3415,98006.4,33.7097,98015.5,34.3347,98026.4,34.4472,98030.5,0,0,0,0,0,0,-0.460884,-0.158017,-9.77433,0,0,0,0,-0,0,0,0,0,0,0,0,0,0,0,0,0,0,0,0,0,0,0,0,ACC_HOLD_NOT_ELAPSED,0
14560,INIT,14560,-0.392649,-0.0873884,-9.55765,0.00319579,-0.00838896,-0.00359527,301.9,14555048,-0.506374,-0.196325,-9.65222,-0.0105195,0.00279632,-0.00146474,301.962,14573217,-0.465672,-0.142455,-9.58878,0,0.00798948,0.018509,303.962,14566872,-0.423774,-0.0981623,-9.68215,0.000532632,-0.00253,0.00226369,300.025,14555174,34.3415,98006.4,33.7097,98015.5,34.3347,98026.4,34.4472,98030.5,0,0,0,0,0,0,-0.423774,-0.0981623,-9.68215,0,0,0,0,-0,0,0,0,0,0,0,0,0,0,0,0,0,0,0,0,0,0,0,0,ACC_HOLD_NOT_ELAPSED,0
14578,INIT,14578,-0.508768,-0.175974,-9.65941,0.00612527,-0.00332895,-0.00452737,301.587,14572832,-0.466869,-0.0802058,-9.61033,-0.00466053,-0.00599211,0.00732369,302.025,14591186,-0.565032,-0.123301,-9.55406,0.00319579,0.0057258,0.00226369,303.775,14584684,-0.439336,-0.136469,-9.67617,0.000798948,-0.00173105,0.00173105,299.775,14572962,34.3229,98002.7,33.6815,98008.6,34.3207,98028.1,34.4379,98030.8,0,0,0,0,0,0,-0.434548,-0.0993594,-9.67736,0,0,0,0,-0,0,0,0,0,0,0,0,0,0,0,0,0,0,0,0,0,0,0,0,ACC_HOLD_NOT_ELAPSED,0
14594,INIT,14594,-0.456095,-0.155623,-9.57202,0.00719053,-0.00506001,0.00253,301.9,14589210,-0.464475,-0.0706289,-9.50498,-0.00585895,-0.00785633,-0.00612527,302.087,14607592,-0.492008,-0.122104,-9.57681,-0.0015979,-0.00466053,-0.00772317,303.837,14601247,-0.381875,-0.0921768,-9.64504,-0.00319579,0.00426106,-0.00066579,299.962,14589376,34.3229,98002.7,33.6815,98008.6,34.3207,98028.1,34.4379,98030.8,0,0,0,0,0,0,-0.439336,-0.191536,-9.63307,0,0,0,0,-0,0,0,0,0,0,0,0,0,0,0,0,0,0,0,0,0,0,0,0,ACC_HOLD_NOT_ELAPSED,0
14610,INIT,14610,-0.444124,-0.0383072,-9.65941,0.00798948,0.000133158,0.00732369,301.837,14605119,-0.527921,-0.0574608,-9.59955,-0.00319579,-0.0105195,0.000133158,302.212,14623530,-0.418985,-0.136469,-9.62589,0.0117179,-0.00359527,0.0117179,303.712,14617028,-0.438139,-0.124498,-9.76116,-0.00506001,-0.00199737,0.00386158,299.962,14605165,34.3229,98002.7,33.6815,98008.6,34.3207,98028.1,34.4379,98030.8,0,0,0,0,0,0,-0.438139,-0.124498,-9.76116,0,0,0,0,-0,0,0,0,0,0,0,0,0,0,0,0,0,0,0,0,0,0,0,0,ACC_HOLD_NOT_ELAPSED,0
14734,INIT,14734,-0.4956,-0.0562637,-9.61751,0.0015979,-0.00838896,-0.00146474,301.9,14729869,-0.505177,-0.180762,-9.54329,-0.0105195,0.00066579,0.00226369,301.962,14748373,-0.514753,-0.155623,-9.63906,0.00106526,0.00106526,0.0143811,303.712,14741716,-0.384269,-0.174777,-9.70131,-0.010919,0.0119842,0.00426106,299.962,14730044,34.3182,98005.8,33.6815,98015,34.3113,98029.7,34.424,98030.6,0,0,0,0,0,0,-0.420182,-0.168791,-9.81383,0,0,0,0,-0,0,0,0,0,0,0,0,0,0,0,0,0,0,0,0,0,0,0,0,ACC_HOLD_NOT_ELAPSED,0
14821,INIT,14821,-0.448913,-0.112527,-9.59237,-0.00266316,0.01265,-0.00585895,301.775,14817047,-0.4956,-0.123301,-9.54089,-0.00439422,-0.00492685,-0.00106526,302.212,14835561,-0.457293,-0.0885855,-9.63786,-0.00186421,0.00918791,-0.00279632,303.9,14828747,-0.481235,-0.094571,-9.73722,-0.00386158,-0.00998685,0.000532632,299.962,14817201,34.3135,98000.6,33.6722,98010,34.3113,98027.9,34.4333,98033.3,0,0,0,0,0,0,-0.466869,-0.0837971,-9.65342,0,0,0,0,-0,0,0,0,0,0,0,0,0,0,0,0,0,0,0,0,0,0,0,0,ACC_HOLD_NOT_ELAPSED,0
14838,INIT,14838,-0.488417,-0.0885855,-9.60434,0.00386158,0.00466053,-0.0110521,301.65,14834082,-0.463278,-0.0897826,-9.61511,-0.0066579,0.000399474,-0.0041279,301.9,14852748,-0.490811,-0.116119,-9.63427,-0.00692422,-0.000399474,-0.000399474,303.775,14845934,-0.476446,-0.155623,-9.73482,0.00266316,0.00692422,0.00506001,300.087,14834425,34.3135,98000.6,33.6722,98010,34.3113,98027.9,34.4333,98033.3,0,0,0,0,0,0,-0.464475,-0.118513,-9.59357,0,0,0,0,-0,0,0,0,0,0,0,0,0,0,0,0,0,0,0,0,0,0,0,0,ACC_HOLD_NOT_ELAPSED,0
14855,INIT,14855,-0.471658,-0.144849,-9.60434,-0.000532632,0.00426106,0.00253,301.962,14851429,-0.457293,-0.154426,-9.56723,-0.000798948,0.000399474,0.00426106,302.025,14870092,-0.470461,-0.071826,-9.67257,0.00199737,0.00213053,-0.01012,303.775,14863278,-0.494403,-0.215478,-9.70969,-0.00599211,-0.00319579,0.00253,300.025,14851616,34.3182,98002.3,33.6769,98012.2,34.3067,98026.8,34.424,98031.2,0,0,0,0,0,0,-0.387861,-0.0981623,-9.73722,0,0,0,0,-0,0,0,0,0,0,0,0,0,0,0,0,0,0,0,0,0,0,0,0,ACC_HOLD_NOT_ELAPSED,0
14887,INIT,14887,-0.381875,-0.0754174,-9.56244,0.00439422,0.00612527,-0.00452737,301.9,14884093,-0.544681,-0.25618,-9.62708,-0.00692422,-0.00239685,0.00852212,302.025,14902748,-0.526724,-0.123301,-9.63068,0.000532632,0.00292948,0.0142479,303.65,14895934,-0.48722,-0.112527,-9.6606,0.00133158,-0.00918791,0.00173105,299.962,14884095,34.3182,98002.3,33.6769,98012.2,34.3067,98026.8,34.424,98031.2,0,0,0,0,0,0,-0.48722,-0.112527,-9.6606,0,0,0,0,-0,0,0,0,0,0,0,0,0,0,0,0,0,0,0,0,0,0,0,0,ACC_HOLD_NOT_ELAPSED,0
14903,INIT,14903,-0.435745,-0.211887,-9.55167,0.00892159,0.00585895,0.00186421,301.65,14900034,-0.501585,-0.221464,-9.62828,-0.0041279,-0.0082558,0.0249006,301.65,14918842,-0.457293,-0.113725,-9.67856,0.00452737,0.00319579,0.0201069,303.9,14911872,-0.429759,-0.0957681,-9.70011,-0.00772317,0.000532632,0.00372843,300.025,14900132,34.3182,98002.3,33.6769,98012.2,34.3067,98026.8,34.424,98031.2,0,0,0,0,0,0,-0.427365,-0.0921768,-9.66539,0,0,0,0,-0,0,0,0,0,0,0,0,0,0,0,0,0,0,0,0,0,0,0,0,ACC_HOLD_NOT_ELAPSED,0
14935,INIT,14935,-0.54109,-0.118513,-9.56005,0.00798948,0.00266316,0.00785633,301.65,14931760,-0.459687,-0.113725,-9.67257,-0.00266316,0.00106526,0.00106526,301.65,14950405,-0.51595,-0.137667,-9.60913,-0.00133158,0.0041279,0.0155795,303.9,14943434,-0.374693,-0.190339,-9.72405,0.00106526,-0.00692422,0.00705738,299.962,14931770,34.3229,98005.1,33.6815,98013.8,34.3113,98022.4,34.4333,98029.1,0,0,0,0,0,0,-0.389058,-0.201113,-9.72644,0,0,0,0,-0,0,0,0,0,0,0,0,0,0,0,0,0,0,0,0,0,0,0,0,ACC_HOLD_NOT_ELAPSED,0
14953,INIT,14953,-0.488417,-0.0873884,-9.56005,-0.00306264,-0.00545948,-0.00213053,302.087,14950234,-0.497994,-0.0981623,-9.61152,-0.0117179,0.000399474,0.00705738,302.15,14968998,-0.584185,-0.153229,-9.61392,-0.00199737,-0.00506001,0.0015979,303.775,14961872,-0.368707,-0.112527,-9.72644,-0.00133158,-0.00319579,-0.00066579,300.087,14950496,34.3229,98005.1,33.6815,98013.8,34.3113,98022.4,34.4333,98029.1,0,0,0,0,0,0,-0.439336,-0.0586579,-9.72166,0,0,0,0,-0,0,0,0,0,0,0,0,0,0,0,0,0,0,0,0,0,0,0,0,ACC_HOLD_NOT_ELAPSED,0
14969,INIT,14969,-0.472855,-0.117316,-9.62708,-0.000399474,0.00199737,0.00066579,302.087,14965394,-0.47884,-0.12809,-9.67497,-0.00625843,-0.00292948,0.00266316,302.212,14984155,-0.526724,-0.118513,-9.61511,-0.00372843,0.00759001,0.00878843,303.9,14977184,-0.374693,-0.1652,-9.71687,-0.00173105,0.00359527,-0.00759001,300.15,14965439,34.3229,98005.1,33.6815,98013.8,34.3113,98022.4,34.4333,98029.1,0,0,0,0,0,0,-0.374693,-0.1652,-9.71687,0,0,0,0,-0,0,0,0,0,0,0,0,0,0,0,0,0,0,0,0,0,0,0,0,ACC_HOLD_NOT_ELAPSED,0
14987,INIT,14987,-0.442927,-0.106542,-9.6642,0.00692422,0.00479369,0.00186421,301.9,14983867,-0.56144,-0.192733,-9.58998,0.00372843,0.00332895,-0.00932106,302.087,15002748,-0.517148,-0.142455,-9.67018,0.0121174,0.00386158,0.018509,303.9,14995778,-0.42138,-0.130484,-9.61631,0.00372843,-0.00319579,-0.00266316,300.025,14984040,34.3229,98003.3,33.6909,98011.3,34.3254,98027.4,34.4286,98031.1,0,0,0,0,0,0,-0.482432,-0.166397,-9.65821,0,0,0,0,-0,0,0,0,0,0,0,0,0,0,0,0,0,0,0,0,0,0,0,0,ACC_HOLD_NOT_ELAPSED,0
15005,INIT,15005,-0.465672,-0.129287,-9.58519,0.0057258,0.00213053,0.00319579,301.9,15002184,-0.472855,-0.220267,-9.6223,-0.0098537,0.00332895,0.00119842,301.962,15021030,-0.469264,-0.171185,-9.56005,-0.00359527,-0.00932106,-0.0146474,303.962,15013903,-0.51595,-0.0622492,-9.67856,-0.00426106,0,-0.00865527,300.212,15002610,34.3229,98003.3,33.6909,98011.3,34.3254,98027.4,34.4286,98031.1,0,0,0,0,0,0,-0.45011,-0.0873884,-9.76715,0,0,0,0,-0,0,0,0,0,0,0,0,0,0,0,0,0,0,0,0,0,0,0,0,ACC_HOLD_NOT_ELAPSED,0
15023,INIT,15023,-0.486023,-0.114922,-9.65701,-0.00173105,-0.00186421,0.00133158,301.837,15020032,-0.453701,-0.102951,-9.6223,-0.0135821,0.00972054,0.00466053,301.962,15038998,-0.438139,-0.161609,-9.58279,0.00506001,0.00812264,0.00439422,303.775,15031872,-0.45849,-0.123301,-9.72764,-0.00146474,-0.00759001,0.00719053,300.087,15020085,34.3229,98003.3,33.6909,98011.3,34.3254,98027.4,34.4286,98031.1,0,0,0,0,0,0,-0.427365,-0.12809,-9.73004,0,0,0,0,-0,0,0,0,0,0,0,0,0,0,0,0,0,0,0,0,0,0,0,0,ACC_HOLD_NOT_ELAPSED,0
15040,INIT,15040,-0.420182,-0.152032,-9.57441,-0.000798948,0.00213053,0.00106526,301.775,15037412,-0.448913,-0.125696,-9.57202,-0.0121174,-0.00106526,0.0153132,302.025,15056342,-0.488417,-0.158017,-9.62828,0.00466053,0.00719053,0.00639159,303.775,15049216,-0.45011,-0.174777,-9.67617,-0.00759001,-0.00559264,0.00199737,300.087,15037905,34.3229,98003.3,33.6909,98011.3,34.3254,98027.4,34.4286,98031.1,0,0,0,0,0,0,-0.410606,-0.0993594,-9.67138,0,0,0,0,-0,0,0,0,0,0,0,0,0,0,0,0,0,0,0,0,0,0,0,0,ACC_HOLD_NOT_ELAPSED,0
15058,INIT,15058,-0.40462,-0.141258,-9.63068,0.000266316,0.00732369,0.00226369,301.525,15055104,-0.624887,-0.147243,-9.58519,-0.0105195,0.000932106,-0.00559264,302.025,15073998,-0.472855,-0.147243,-9.72405,-0.0041279,0.00639159,-0.00466053,303.775,15066872,-0.444124,-0.0957681,-9.67736,-0.00226369,-0.00253,0.0041279,300.025,15055192,34.3322,98006,33.6815,98010.9,34.3254,98026.2,34.4333,98029.7,0,0,0,0,0,0,-0.444124,-0.0957681,-9.67736,0,0,0,0,-0,0,0,0,0,0,0,0,0,0,0,0,0,0,0,0,0,0,0,0,ACC_HOLD_NOT_ELAPSED,0
15076,INIT,15076,-0.40462,-0.059855,-9.64624,0.00133158,0.00519316,0.00439422,301.65,15072796,-0.514753,-0.190339,-9.64025,-0.00772317,-0.00199737,0.00292948,301.962,15091655,-0.568623,-0.167594,-9.60075,0.00732369,0.00133158,-0.0239685,303.9,15084528,-0.508768,-0.100556,-9.69891,0.00332895,0.00319579,0.0041279,300.087,15072856,34.3322,98006,33.6815,98010.9,34.3254,98026.2,34.4333,98029.7,0,0,0,0,0,0,-0.508768,-0.100556,-9.69891,0,0,0,0,-0,0,0,0,0,0,0,0,0,0,0,0,0,0,0,0,0,0,0,0,ACC_HOLD_NOT_ELAPSED,0
15092,INIT,15092,-0.509965,-0.0897826,-9.61871,0.0015979,0.0131826,0.00905475,301.837,15089863,-0.550666,-0.195127,-9.69053,-0.00852212,0.00279632,0.00612527,302.087,15108686,-0.480037,-0.169988,-9.63786,-0.000798948,0.000932106,-0.00279632,303.775,15101559,-0.465672,-0.0754174,-9.83418,0.000532632,0.00266316,-0.00905475,300.025,15089863,34.3322,98006,33.6815,98010.9,34.3254,98026.2,34.4333,98029.7,0,0,0,0,0,0,-0.465672,-0.0754174,-9.83418,0,0,0,0,-0,0,0,0,0,0,0,0,0,0,0,0,0,0,0,0,0,0,0,0,ACC_HOLD_NOT_ELAPSED,0
15110,INIT,15110,-0.408211,-0.175974,-9.59596,-0.00359527,0.00452737,0.00386158,301.837,15107076,-0.462081,-0.0526724,-9.68814,-0.00199737,0.00292948,0.00798948,302.275,15125777,-0.574608,-0.11971,-9.67138,0.000532632,0.000932106,-0.0117179,303.837,15118715,-0.439336,-0.0849942,-9.70131,-0.00679106,-0.00479369,-0.000798948,300.025,15107527,34.3322,98006,33.6815,98010.9,34.3254,98026.2,34.4333,98029.7,0,0,0,0,0,0,-0.386664,-0.153229,-9.7037,0,0,0,0,-0,0,0,0,0,0,0,0,0,0,0,0,0,0,0,0,0,0,0,0,ACC_HOLD_NOT_ELAPSED,0
15127,INIT,15127,-0.469264,-0.15682,-9.55765,0.00625843,-0.000532632,0.00292948,301.712,15124591,-0.526724,-0.116119,-9.57561,-0.00945422,0.00253,-0.00253,302.087,15143242,-0.52433,-0.147243,-9.63068,-0.00119842,0.00173105,-0.00692422,303.65,15136179,-0.482432,-0.17358,-9.62708,-0.0098537,-0.0057258,-0.00226369,299.962,15124782,34.3369,98007.7,33.6909,98013,34.3254,98026.8,34.4426,98028.8,0,0,0,0,0,0,-0.45849,-0.143652,-9.70609,0,0,0,0,-0,0,0,0,0,0,0,0,0,0,0,0,0,0,0,0,0,0,0,0,ACC_HOLD_NOT_ELAPSED,0
15146,INIT,15146,-0.468066,-0.169988,-9.6223,0.000798948,0.00559264,-0.00186421,301.9,15142908,-0.501585,-0.125696,-9.53012,-0.00838896,0.000532632,-0.000266316,302.275,15161487,-0.535104,-0.132878,-9.55406,0.00466053,-0.00346211,0.0103863,303.775,15154268,-0.407014,-0.0562637,-9.71447,0.00466053,0.00452737,-0.00772317,299.962,15143007,34.3369,98007.7,33.6909,98013,34.3254,98026.8,34.4426,98028.8,0,0,0,0,0,0,-0.407014,-0.0562637,-9.71447,0,0,0,0,-0,0,0,0,0,0,0,0,0,0,0,0,0,0,0,0,0,0,0,0,ACC_HOLD_NOT_ELAPSED,0
15162,INIT,15162,-0.442927,-0.106542,-9.60673,0.00945422,0.00772317,0.00532632,301.525,15159160,-0.490811,-0.102951,-9.58519,-0.000266316,0.0015979,0.01265,302.15,15177577,-0.513556,-0.141258,-9.62948,0.00386158,0.00452737,0.0122505,303.9,15170515,-0.462081,-0.152032,-9.75039,-0.00173105,-0.00213053,0.00133158,300.087,15159418,34.3369,98007.7,33.6909,98013,34.3254,98026.8,34.4426,98028.8,0,0,0,0,0,0,-0.470461,-0.15682,-9.70609,0,0,0,0,-0,0,0,0,0,0,0,0,0,0,0,0,0,0,0,0,0,0,0,0,ACC_HOLD_NOT_ELAPSED,0
15181,INIT,15181,-0.44173,-0.219069,-9.73482,0.00239685,0.00066579,0.00878843,301.9,15177560,-0.428562,-0.0873884,-9.63906,-0.0130495,-0.0057258,0.00545948,301.962,15195855,-0.465672,-0.208296,-9.60673,0.00439422,0.000399474,0.0103863,303.712,15188792,-0.416591,-0.135272,-9.73004,-0.00359527,-0.00545948,0.00599211,299.962,15177626,34.3369,98007.7,33.6909,98013,34.3254,98026.8,34.4426,98028.8,0,0,0,0,0,0,-0.416591,-0.135272,-9.73004,0,0,0,0,-0,0,0,0,0,0,0,0,0,0,0,0,0,0,0,0,0,0,0,0,ACC_HOLD_NOT_ELAPSED,0
15200,INIT,15200,-0.482432,-0.0933739,-9.65342,0.00346211,-0.000133158,-0.00705738,301.837,15196470,-0.489614,-0.136469,-9.65462,-0.00705738,-0.00426106,-0.00785633,302.087,15214757,-0.590171,-0.0778116,-9.69412,-0.00719053,0.00532632,-0.00133158,303.775,15207695,-0.463278,-0.158017,-9.64265,0.00466053,-0.00173105,-0.00239685,300.025,15196724,34.3322,98004.9,33.6909,98012.4,34.3301,98026.6,34.4426,98032.4,0,0,0,0,0,0,-0.466869,-0.175974,-9.70011,0,0,0,0,-0,0,0,0,0,0,0,0,0,0,0,0,0,0,0,0,0,0,0,0,ACC_HOLD_NOT_ELAPSED,0
15216,INIT,15216,-0.468066,-0.135272,-9.57441,-0.00865527,-0.00146474,-0.0105195,301.587,15212066,-0.476446,-0.186748,-9.67497,-0.00279632,0.00253,0.0057258,301.962,15230254,-0.483629,-0.1652,-9.67257,0.00173105,0.00932106,-0.00106526,303.962,15223192,-0.45849,-0.0885855,-9.68933,0.00213053,0.00372843,0.000932106,299.837,15212628,34.3322,98004.9,33.6909,98012.4,34.3301,98026.6,34.4426,98032.4,0,0,0,0,0,0,-0.407014,-0.160412,-9.6642,0,0,0,0,-0,0,0,0,0,0,0,0,0,0,0,0,0,0,0,0,0,0,0,0,ACC_HOLD_NOT_ELAPSED,0
15232,INIT,15232,-0.418985,-0.0766145,-9.56484,-0.000798948,0.00439422,0.00905475,301.712,15228102,-0.430956,-0.186748,-9.6211,-0.00466053,0.00306264,-0.00119842,301.962,15246376,-0.556652,-0.1652,-9.58758,0.00439422,0.00705738,0.000798948,303.712,15239157,-0.408211,-0.175974,-9.72884,-0.000798948,0.00519316,0.00545948,299.9,15228254,34.3322,98004.9,33.6909,98012.4,34.3301,98026.6,34.4426,98032.4,0,0,0,0,0,0,-0.405817,-0.12809,-9.77912,0,0,0,0,-0,0,0,0,0,0,0,0,0,0,0,0,0,0,0,0,0,0,0,0,ACC_HOLD_NOT_ELAPSED,0
15248,INIT,15248,-0.401029,-0.125696,-9.53012,0.00625843,0.00466053,-0.01265,301.775,15244011,-0.530316,-0.035913,-9.60434,-0.00759001,0.00519316,0.00892159,302.025,15262186,-0.567426,-0.135272,-9.66539,0.00652474,-0.00426106,0.0125169,303.962,15254967,-0.384269,-0.125696,-9.71687,-0.00852212,-0.00719053,0.00545948,299.9,15244033,34.3322,98004.9,33.6909,98012.4,34.3301,98026.6,34.4426,98032.4,0,0,0,0,0,0,-0.398635,-0.0730232,-9.70609,0,0,0,0,-0,0,0,0,0,0,0,0,0,0,0,0,0,0,0,0,0,0,0,0,ACC_HOLD_NOT_ELAPSED,0
15264,INIT,15264,-0.433351,-0.183156,-9.59237,-0.00199737,0.00359527,0.0110521,301.837,15260371,-0.486023,-0.171185,-9.48104,-0.00519316,-0.00932106,0.0118511,302.025,15278464,-0.567426,-0.162806,-9.59357,-0.00506001,0.0117179,0.00106526,303.9,15271401,-0.466869,-0.0646434,-9.64863,0.00106526,-0.00292948,0.00812264,300.025,15260443,34.3322,98004.9,33.6909,98012.4,34.3301,98026.6,34.4426,98032.4,0,0,0,0,0,0,-0.472855,-0.138864,-9.67497,0,0,0,0,-0,0,0,0,0,0,0,0,0,0,0,0,0,0,0,0,0,0,0,0,ACC_HOLD_NOT_ELAPSED,0
15281,INIT,15281,-0.415394,-0.0873884,-9.61871,0.00346211,-0.00186421,-0.00612527,301.9,15277530,-0.505177,-0.184354,-9.56603,-0.00838896,-0.00426106,0.00426106,302.025,15295680,-0.54109,-0.162806,-9.68574,-0.00319579,-0.00426106,-0.00772317,303.712,15288461,-0.397437,-0.0646434,-9.64624,0.00239685,-0.000798948,0.0066579,299.775,15277602,34.3275,98003.8,33.6909,98008.9,34.3301,98022.4,34.4519,98030.3,0,0,0,0,0,0,-0.397437,-0.0646434,-9.64624,0,0,0,0,-0,0,0,0,0,0,0,0,0,0,0,0,0,0,0,0,0,0,0,0,ACC_HOLD_NOT_ELAPSED,0
15299,INIT,15299,-0.434548,-0.0395043,-9.56244,0.000532632,-0.00186421,0.00439422,301.587,15294995,-0.490811,-0.100556,-9.54209,0.00372843,0.00972054,-0.00439422,301.962,15313052,-0.481235,-0.0442927,-9.62948,0.00585895,-0.00426106,0.0149137,303.712,15305833,-0.438139,-0.0514753,-9.68335,0.00199737,0.00239685,-0.0041279,300.025,15295482,34.3275,98003.8,33.6909,98008.9,34.3301,98022.4,34.4519,98030.3,0,0,0,0,0,0,-0.471658,-0.141258,-9.73363,0,0,0,0,-0,0,0,0,0,0,0,0,0,0,0,0,0,0,0,0,0,0,0,0,ACC_HOLD_NOT_ELAPSED,0
15317,INIT,15317,-0.417788,-0.0610521,-9.63666,0.00426106,0.00372843,0.00386158,301.775,15312467,-0.53271,-0.167594,-9.56962,-0.0113184,0.00279632,0.00719053,301.9,15330580,-0.547075,-0.161609,-9.58878,-0.00372843,-0.00119842,0.00559264,303.9,15323361,-0.484826,-0.0622492,-9.73722,-0.000133158,0.000532632,0.00972054,300.025,15312517,34.3275,98003.8,33.6909,98008.9,34.3301,98022.4,34.4519,98030.3,0,0,0,0,0,0,-0.484826,-0.0622492,-9.73722,0,0,0,0,-0,0,0,0,0,0,0,0,0,0,0,0,0,0,0,0,0,0,0,0,ACC_HOLD_NOT_ELAPSED,0
15334,INIT,15334,-0.464475,-0.180762,-9.5816,-0.00492685,-0.00253,0.00852212,302.025,15330095,-0.492008,-0.136469,-9.63906,-0.0113184,-0.00426106,0.00346211,301.9,15348108,-0.482432,-0.12809,-9.58519,-0.00559264,0.0057258,0.0113184,303.9,15340889,-0.4956,-0.146046,-9.66779,-0.0111853,0.00292948,0.0082558,299.962,15330710,34.3275,98003.8,33.6909,98008.9,34.3301,98022.4,34.4519,98030.3,0,0,0,0,0,0,-0.417788,-0.094571,-9.72884,0,0,0,0,-0,0,0,0,0,0,0,0,0,0,0,0,0,0,0,0,0,0,0,0,ACC_HOLD_NOT_ELAPSED,0
15352,INIT,15352,-0.439336,-0.135272,-9.60195,0.000266316,0.00732369,0.00386158,301.837,15348035,-0.505177,-0.190339,-9.59596,0.00106526,0.0015979,0.00798948,302.15,15366105,-0.559046,-0.0646434,-9.59357,0.00239685,-0.00226369,-0.00279632,303.9,15358886,-0.438139,-0.0287304,-9.67736,-0.00439422,0.00945422,0.00332895,299.962,15348058,34.3369,98005.9,33.705,98012.7,34.3301,98024.2,34.4519,98030.9,0,0,0,0,0,0,-0.438139,-0.0287304,-9.67736,0,0,0,0,-0,0,0,0,0,0,0,0,0,0,0,0,0,0,0,0,0,0,0,0,ACC_HOLD_NOT_ELAPSED,0
15371,INIT,15371,-0.4956,-0.1652,-9.61751,-0.000399474,0.00226369,0.00532632,301.525,15366601,-0.448913,-0.110133,-9.67617,-0.00705738,0.00213053,-0.000532632,302.087,15384571,-0.572214,-0.12809,-9.65941,0.00599211,-0.00492685,0.010919,304.087,15377352,-0.429759,-0.117316,-9.71447,-0.01012,-0.00319579,0.00146474,299.837,15366687,34.3369,98005.9,33.705,98012.7,34.3301,98024.2,34.4519,98030.9,0,0,0,0,0,0,-0.408211,-0.105345,-9.71926,0,0,0,0,-0,0,0,0,0,0,0,0,0,0,0,0,0,0,0,0,0,0,0,0,ACC_HOLD_NOT_ELAPSED,0
15390,INIT,15390,-0.501585,-0.0969652,-9.60673,-0.00612527,-0.00372843,-0.00213053,301.9,15385166,-0.496797,-0.102951,-9.54209,-0.00506001,-0.00785633,0.00346211,301.837,15403037,-0.465672,-0.184354,-9.64025,0.00559264,0.00173105,0.00852212,303.712,15395818,-0.42138,-0.143652,-9.663,0.000932106,-0.00346211,0.00359527,299.837,15385817,34.3369,98005.9,33.705,98012.7,34.3301,98024.2,34.4519,98030.9,0,0,0,0,0,0,-0.438139,-0.0921768,-9.73243,0,0,0,0,-0,0,0,0,0,0,0,0,0,0,0,0,0,0,0,0,0,0,0,0,ACC_HOLD_NOT_ELAPSED,0
15409,INIT,15409,-0.508768,-0.0502782,-9.67497,0,-0.00066579,-0.00559264,301.775,15404201,-0.51595,-0.106542,-9.54209,0.00466053,0.00306264,-0.00705738,302.087,15422127,-0.568623,-0.169988,-9.58638,-0.00213053,0.00785633,0.00279632,303.9,15414909,-0.51595,-0.131681,-9.73004,0.00253,0.00399474,0.00119842,299.837,15404291,34.3369,98005.9,33.705,98012.7,34.3301,98024.2,34.4519,98030.9,0,0,0,0,0,0,-0.430956,-0.0442927,-9.78031,0,0,0,0,-0,0,0,0,0,0,0,0,0,0,0,0,0,0,0,0,0,0,0,0,ACC_HOLD_NOT_ELAPSED,0
15428,INIT,15428,-0.383072,-0.0790087,-9.59476,-0.00226369,0.00945422,-0.0110521,301.837,15423391,-0.474052,-0.11133,-9.5804,-0.00798948,-0.000798948,0.00652474,302.15,15441218,-0.4956,-0.172383,-9.63906,-0.00878843,0.0115848,0.0131826,303.712,15433999,-0.416591,-0.143652,-9.6642,-0.00719053,0.000532632,0.00332895,299.962,15424046,34.3415,98001.7,33.7003,98010.5,34.3394,98027.5,34.4565,98028.3,0,0,0,0,0,0,-0.42138,-0.101754,-9.72166,0,0,0,0,-0,0,0,0,0,0,0,0,0,0,0,0,0,0,0,0,0,0,0,0,ACC_HOLD_NOT_ELAPSED,0
15447,INIT,15447,-0.463278,-0.0933739,-9.67976,-0.00292948,0.00266316,-0.00612527,301.837,15442425,-0.484826,-0.150835,-9.60673,-0.00399474,-0.00332895,0.00639159,301.962,15460309,-0.549469,-0.147243,-9.68455,0.00213053,-0.00186421,0.018509,303.9,15452934,-0.472855,-0.171185,-9.68694,-0.00932106,0.00639159,0.00732369,299.837,15442956,34.3415,98001.7,33.7003,98010.5,34.3394,98027.5,34.4565,98028.3,0,0,0,0,0,0,-0.395043,-0.160412,-9.71208,0,0,0,0,-0,0,0,0,0,0,0,0,0,0,0,0,0,0,0,0,0,0,0,0,ACC_HOLD_NOT_ELAPSED,0
15467,INIT,15467,-0.426168,-0.0562637,-9.62708,0.00918791,0.00306264,0.00439422,301.9,15461772,-0.444124,-0.0430956,-9.66659,-0.0105195,0.00332895,0.00585895,302.025,15479556,-0.505177,-0.0909797,-9.59716,0.00639159,-0.0015979,-0.00466053,303.837,15472337,-0.451307,-0.144849,-9.7049,-0.00732369,-0.000932106,0.00372843,300.087,15462399,34.3415,98001.7,33.7003,98010.5,34.3394,98027.5,34.4565,98028.3,0,0,0,0,0,0,-0.488417,-0.174777,-9.80186,0,0,0,0,-0,0,0,0,0,0,0,0,0,0,0,0,0,0,0,0,0,0,0,0,ACC_HOLD_NOT_ELAPSED,0
15486,INIT,15486,-0.411803,-0.101754,-9.62708,-0.000399474,0.00186421,0.00692422,301.837,15481431,-0.511162,-0.208296,-9.64863,-0.00359527,0.00545948,0.00652474,302.087,15499115,-0.499191,-0.201113,-9.54089,-0.00878843,0.00066579,-0.0209058,303.9,15491897,-0.45849,-0.138864,-9.71687,-0.00066579,0,-0.00466053,299.962,15481934,34.3415,98001.7,33.7003,98010.5,34.3394,98027.5,34.4565,98028.3,0,0,0,0,0,0,-0.518345,-0.0849942,-9.65103,0,0,0,0,-0,0,0,0,0,0,0,0,0,0,0,0,0,0,0,0,0,0,0,0,ACC_HOLD_NOT_ELAPSED,0
15502,INIT,15502,-0.500388,-0.153229,-9.59835,0.00279632,0.00359527,-0.00146474,301.837,15496840,-0.520739,-0.167594,-9.61033,-0.00332895,0.00066579,-0.00359527,301.9,15514644,-0.472855,-0.226252,-9.62948,0.00066579,0.00399474,0.00372843,303.712,15507426,-0.463278,-0.184354,-9.66659,-0.00319579,0.00173105,-0.00226369,299.962,15496905,34.3509,98003.8,33.705,98012.1,34.3347,98023.4,34.4472,98028.7,0,0,0,0,0,0,-0.42138,-0.124498,-9.65222,0,0,0,0,-0,0,0,0,0,0,0,0,0,0,0,0,0,0,0,0,0,0,0,0,ACC_HOLD_NOT_ELAPSED,0
15518,INIT,15518,-0.452504,-0.17358,-9.58519,0.00186421,0.00639159,0.0015979,301.65,15512405,-0.454898,-0.118513,-9.578,-0.00372843,0,0.00559264,302.212,15530173,-0.520739,-0.131681,-9.65103,0.00119842,0.0057258,0.00279632,303.9,15522798,-0.448913,-0.142455,-9.70011,-0.00332895,0.00399474,0.0111853,299.712,15513003,34.3649,98004.7,33.7237,98013.4,34.3582,98026.8,34.4658,98026.2,0,0,0,0,0,0,-0.42138,-0.172383,-9.6642,0,0,0,0,-0,0,0,0,0,0,0,0,0,0,0,0,0,0,0,0,0,0,0,0,ACC_HOLD_NOT_ELAPSED,0
15538,INIT,15538,-0.442927,-0.0933739,-9.50618,-0.000798948,0.00532632,-0.000532632,301.712,15532845,-0.527921,-0.126893,-9.62948,0.0015979,0.000932106,0.0057258,301.9,15550514,-0.523133,-0.0993594,-9.67497,0.00892159,0.00253,0.0117179,303.837,15543139,-0.422577,-0.172383,-9.67138,0.00545948,-0.000932106,0.00679106,300.337,15533383,34.3882,98007.6,33.7378,98006.6,34.3816,98027.1,34.4983,98031.1,0,0,0,0,0,0,-0.409408,-0.0849942,-9.76236,0,0,0,0,-0,0,0,0,0,0,0,0,0,0,0,0,0,0,0,0,0,0,0,0,ACC_HOLD_NOT_ELAPSED,0
15554,INIT,15554,-0.446519,-0.138864,-9.57561,0.00479369,0.00213053,0.00066579,301.65,15548410,-0.526724,-0.132878,-9.59476,-0.0057258,-0.00692422,-0.000399474,301.962,15566199,-0.499191,-0.0694318,-9.56005,0.0082558,0.00998685,0.0122505,304.025,15558824,-0.514753,-0.191536,-9.63068,-0.0041279,-0.00253,-0.00865527,299.962,15549044,34.3882,98007.6,33.7378,98006.6,34.3816,98027.1,34.4983,98031.1,0,0,0,0,0,0,-0.432153,-0.100556,-9.76834,0,0,0,0,-0,0,0,0,0,0,0,0,0,0,0,0,0,0,0,0,0,0,0,0,ACC_HOLD_NOT_ELAPSED,0
15574,INIT,15574,-0.423774,-0.191536,-9.54089,-0.0015979,0.00585895,0.00532632,301.65,15568850,-0.463278,-0.0682347,-9.67138,-0.00625843,0.000133158,-0.0015979,302.025,15586540,-0.542287,-0.11971,-9.67497,-0.00399474,-0.0015979,0.0122505,303.837,15579165,-0.357933,-0.135272,-9.73243,-0.00759001,0.00386158,-0.00359527,300.087,15569424,34.4068,98002.4,33.7659,98014.2,34.4003,98028.9,34.5123,98030,0,0,0,0,0,0,-0.463278,-0.129287,-9.77912,0,0,0,0,-0,0,0,0,0,0,0,0,0,0,0,0,0,0,0,0,0,0,0,0,ACC_HOLD_NOT_ELAPSED,0
15590,INIT,15590,-0.384269,-0.159214,-9.51695,0.00253,0.00186421,0.00253,301.837,15584571,-0.572214,-0.143652,-9.53611,0.00119842,0.00359527,-0.0098537,302.025,15602382,-0.519542,-0.0885855,-9.60314,0.00719053,0.0142479,0.00399474,303.65,15595007,-0.452504,-0.104148,-9.6211,0.00133158,0.00173105,0.00426106,299.962,15585365,34.4208,98005,33.7894,98015.4,34.419,98029.4,34.5262,98029.5,0,0,0,0,0,0,-0.422577,-0.0849942,-9.75637,0,0,0,0,-0,0,0,0,0,0,0,0,0,0,0,0,0,0,0,0,0,0,0,0,ACC_HOLD_NOT_ELAPSED,0
15606,INIT,15606,-0.460884,-0.172383,-9.60195,-0.00133158,0.00639159,0.00599211,301.9,15600292,-0.555455,-0.0610521,-9.5397,-0.0103863,-0.00519316,0.000932106,302.15,15618067,-0.512359,-0.161609,-9.6211,0.00253,-0.00332895,0.00119842,303.587,15610692,-0.502782,-0.184354,-9.70969,-0.00545948,-0.00519316,-0.00479369,300.087,15600994,34.4302,98004.8,33.7941,98010.6,34.4237,98025.6,34.5448,98031.9,0,0,0,0,0,0,-0.494403,-0.0885855,-9.66659,0,0,0,0,-0,0,0,0,0,0,0,0,0,0,0,0,0,0,0,0,0,0,0,0,ACC_HOLD_NOT_ELAPSED,0
15622,INIT,15622,-0.426168,-0.0802058,-9.58638,0.00213053,-0.00306264,-0.00306264,301.837,15616170,-0.464475,-0.102951,-9.61033,0.000932106,-0.00812264,0.00253,301.962,15633908,-0.508768,-0.122104,-9.57202,0.00239685,-0.000399474,0.0015979,303.9,15626533,-0.459687,-0.174777,-9.68335,0.00173105,0,-0.00133158,300.025,15616967,34.4395,98000.5,33.8034,98012.1,34.4424,98026.2,34.5587,98032,0,0,0,0,0,0,-0.401029,-0.15682,-9.7049,0,0,0,0,-0,0,0,0,0,0,0,0,0,0,0,0,0,0,0,0,0,0,0,0,ACC_HOLD_NOT_ELAPSED,0
15643,INIT,15643,-0.505177,-0.0873884,-9.64025,-0.00106526,0.00625843,-0.00386158,301.525,15637079,-0.530316,-0.186748,-9.54808,-0.0107858,-0.00519316,0.00266316,302.15,15654874,-0.512359,-0.178368,-9.59955,0.00386158,-0.00119842,0.000399474,303.775,15647499,-0.438139,-0.198719,-9.69891,0.00625843,-0.000399474,-0.00146474,299.962,15637159,34.4582,98002.4,33.8175,98012.9,34.4565,98028.1,34.5634,98027.6,0,0,0,0,0,0,-0.470461,-0.178368,-9.67617,0,0,0,0,-0,0,0,0,0,0,0,0,0,0,0,0,0,0,0,0,0,0,0,0,ACC_HOLD_NOT_ELAPSED,0
15664,INIT,15664,-0.4956,-0.0837971,-9.56005,0.00253,0.00266316,0.00359527,301.65,15658144,-0.509965,-0.100556,-9.60793,-0.00239685,-0.00332895,0,302.087,15675840,-0.51595,-0.146046,-9.6606,-0.00106526,0.00639159,0.0125169,304.025,15668309,-0.513556,-0.166397,-9.75996,-0.00266316,0.00332895,0.000532632,299.962,15658665,34.4675,97999.8,33.8269,98010.3,34.4658,98027.7,34.5727,98027.9,0,0,0,0,0,0,-0.439336,-0.150835,-9.69053,0,0,0,0,-0,0,0,0,0,0,0,0,0,0,0,0,0,0,0,0,0,0,0,0,ACC_HOLD_NOT_ELAPSED,0
15680,INIT,15680,-0.488417,-0.0347159,-9.61631,-0.000399474,0.00439422,-0.00519316,302.087,15674022,-0.490811,-0.0814029,-9.56364,-0.00372843,0.0105195,0.00119842,302.212,15691681,-0.543484,-0.12809,-9.63786,-0.00452737,0.0114516,-0.000798948,303.9,15684150,-0.472855,-0.19393,-9.69293,-0.00865527,-0.00133158,-0.00905475,300.025,15674639,34.4675,97999.8,33.8269,98010.3,34.4658,98027.7,34.5727,98027.9,0,0,0,0,0,0,-0.432153,-0.152032,-9.65821,0,0,0,0,-0,0,0,0,0,0,0,0,0,0,0,0,0,0,0,0,0,0,0,0,ACC_HOLD_NOT_ELAPSED,0
15696,INIT,15696,-0.44173,-0.113725,-9.60195,0.00346211,-0.00253,0.00133158,301.9,15689899,-0.483629,-0.132878,-9.64265,-0.0137153,-0.00479369,0.00266316,302.087,15707679,-0.490811,-0.125696,-9.63546,0.000798948,0.000266316,-0.00372843,303.9,15700148,-0.353145,-0.114922,-9.75039,-0.000399474,-0.000798948,0.00506001,300.025,15690580,34.4675,98001.5,33.8269,98013.3,34.4705,98027.6,34.5866,98028.6,0,0,0,0,0,0,-0.430956,-0.0993594,-9.73243,0,0,0,0,-0,0,0,0,0,0,0,0,0,0,0,0,0,0,0,0,0,0,0,0,ACC_HOLD_NOT_ELAPSED,0
15717,INIT,15717,-0.529119,-0.124498,-9.65103,-0.00133158,-0.00346211,0.00692422,301.9,15710808,-0.465672,-0.0442927,-9.64265,-0.00186421,0.0066579,-0.00785633,302.087,15728489,-0.488417,-0.20231,-9.72764,0.00519316,0.0066579,-0.00705738,303.837,15720957,-0.48722,-0.125696,-9.62828,-0.00506001,-0.00545948,0.00466053,299.962,15711461,34.4768,98003.1,33.8316,98009.1,34.4799,98029,34.5959,98034.3,0,0,0,0,0,0,-0.397437,-0.214281,-9.7456,0,0,0,0,-0,0,0,0,0,0,0,0,0,0,0,0,0,0,0,0,0,0,0,0,ACC_HOLD_NOT_ELAPSED,0
15733,INIT,15733,-0.447716,-0.0814029,-9.55406,-0.00506001,-0.00466053,-0.00639159,301.65,15726685,-0.511162,-0.131681,-9.56962,-0.00452737,-0.00452737,-0.000266316,302.087,15744330,-0.523133,-0.178368,-9.56723,-0.00279632,0.0041279,0.00612527,303.837,15736799,-0.428562,-0.094571,-9.70729,0.0066579,-0.00226369,0.00173105,299.962,15727402,34.4908,98006.9,33.8503,98012.7,34.4752,98026.2,34.5959,98030.7,0,0,0,0,0,0,-0.48722,-0.102951,-9.75757,0,0,0,0,-0,0,0,0,0,0,0,0,0,0,0,0,0,0,0,0,0,0,0,0,ACC_HOLD_NOT_ELAPSED,0
15749,INIT,15749,-0.542287,-0.152032,-9.55885,0.00958738,0.00359527,-0.000798948,301.9,15742719,-0.492008,-0.116119,-9.66539,-0.0131826,-0.00359527,-0.00359527,301.9,15760484,-0.488417,-0.0981623,-9.57681,-0.00452737,0.00466053,0.0158458,303.9,15752797,-0.399832,-0.148441,-9.71567,-0.00146474,0.00186421,-0.00785633,300.087,15743343,34.4861,98001.7,33.8456,98011.7,34.4939,98032.1,34.5959,98030.1,0,0,0,0,0,0,-0.433351,-0.184354,-9.72644,0,0,0,0,-0,0,0,0,0,0,0,0,0,0,0,0,0,0,0,0,0,0,0,0,ACC_HOLD_NOT_ELAPSED,0
15765,INIT,15765,-0.445322,-0.169988,-9.62948,-0.0015979,0.00359527,0.00292948,301.65,15758596,-0.536301,-0.144849,-9.58998,-0.0082558,0.00426106,-0.000266316,302.025,15776326,-0.509965,-0.155623,-9.61152,0.00426106,-0.00253,0.0149137,303.837,15768794,-0.519542,-0.0885855,-9.70969,-0.00679106,-0.010919,0.00133158,300.025,15759285,34.4861,98001.7,33.8456,98011.7,34.4939,98032.1,34.5959,98030.1,0,0,0,0,0,0,-0.508768,-0.114922,-9.69891,0,0,0,0,-0,0,0,0,0,0,0,0,0,0,0,0,0,0,0,0,0,0,0,0,ACC_HOLD_NOT_ELAPSED,0
15786,INIT,15786,-0.489614,-0.152032,-9.53012,0.00905475,-0.00399474,-0.00492685,301.962,15779818,-0.472855,-0.126893,-9.61751,-0.0110521,0.00279632,0.00612527,302.15,15797604,-0.533907,-0.158017,-9.61392,-0.00439422,0.00732369,0.00585895,303.712,15789916,-0.418985,-0.125696,-9.67497,-0.00292948,0.000532632,0.00719053,300.025,15780446,34.4861,98001.1,33.8456,98012.2,34.4892,98026.9,34.5959,98031.9,0,0,0,0,0,0,-0.460884,-0.120907,-9.73722,0,0,0,0,-0,0,0,0,0,0,0,0,0,0,0,0,0,0,0,0,0,0,0,0,ACC_HOLD_NOT_ELAPSED,0
15802,INIT,15802,-0.476446,-0.0347159,-9.57322,0.00798948,0.00266316,0.00732369,301.837,15795695,-0.501585,-0.0981623,-9.63187,-0.00492685,-0.0066579,0.000532632,301.962,15813445,-0.506374,-0.147243,-9.67377,0.00306264,0.00639159,-0.0170442,303.9,15805758,-0.448913,-0.124498,-9.70609,-0.00545948,0.0110521,-0.00346211,300.4,15796419,34.5001,98001.9,33.855,98013.2,34.4986,98026.6,34.6052,98029.2,0,0,0,0,0,0,-0.439336,-0.0885855,-9.71567,0,0,0,0,-0,0,0,0,0,0,0,0,0,0,0,0,0,0,0,0,0,0,0,0,ACC_HOLD_NOT_ELAPSED,0
15818,INIT,15818,-0.420182,-0.141258,-9.58399,-0.0015979,-0.00679106,-0.000798948,302.025,15811885,-0.464475,-0.161609,-9.55646,-0.00306264,-0.00359527,0.00679106,302.087,15829599,-0.430956,-0.160412,-9.56364,0.0057258,-0.00106526,0.00332895,303.65,15822068,-0.411803,-0.161609,-9.71088,-0.00865527,-0.000399474,-0.00279632,299.962,15811892,34.5095,98005.8,33.855,98013.2,34.5033,98030,34.6145,98029.5,0,0,0,0,0,0,-0.411803,-0.161609,-9.71088,0,0,0,0,-0,0,0,0,0,0,0,0,0,0,0,0,0,0,0,0,0,0,0,0,ACC_HOLD_NOT_ELAPSED,0
15834,INIT,15834,-0.460884,-0.204704,-9.63906,0.00253,0.00519316,-0.00306264,301.837,15827918,-0.507571,-0.142455,-9.58279,-0.00772317,-0.00905475,0.00239685,302.025,15845597,-0.494403,-0.175974,-9.55646,-0.0111853,0.00213053,-0.00372843,303.9,15837910,-0.432153,-0.144849,-9.71687,0.00399474,0.00452737,-0.00612527,299.837,15828646,34.5048,98001.8,33.8644,98014.1,34.4892,98026.9,34.6192,98031.1,0,0,0,0,0,0,-0.408211,-0.143652,-9.69053,0,0,0,0,-0,0,0,0,0,0,0,0,0,0,0,0,0,0,0,0,0,0,0,0,ACC_HOLD_NOT_ELAPSED,0
15850,INIT,15850,-0.444124,-0.107739,-9.57681,-0.00146474,0,-0.00119842,301.775,15844108,-0.525527,-0.131681,-9.56124,-0.00439422,-0.00146474,0.00798948,302.025,15861751,-0.483629,-0.0873884,-9.66659,0.00719053,-0.000798948,0.00133158,303.712,15854064,-0.350751,-0.114922,-9.6642,0.000532632,-0.00173105,-0.000266316,299.962,15844620,34.5048,98001.8,33.8644,98014.1,34.4892,98026.9,34.6192,98031.1,0,0,0,0,0,0,-0.379481,-0.0658405,-9.71687,0,0,0,0,-0,0,0,0,0,0,0,0,0,0,0,0,0,0,0,0,0,0,0,0,ACC_HOLD_NOT_ELAPSED,0
15866,INIT,15866,-0.550666,-0.0610521,-9.46787,-0.00306264,0.00559264,0.00133158,301.962,15860298,-0.59855,-0.107739,-9.64983,-0.0066579,0.00306264,-0.00173105,301.837,15878061,-0.440533,-0.148441,-9.54449,-0.00399474,-0.000399474,0.00253,303.837,15870374,-0.385466,-0.19393,-9.73363,-0.00639159,-0.00213053,-0.00532632,300.087,15861030,34.5001,98004.3,33.8644,98010.6,34.5033,98027.6,34.6099,98027.8,0,0,0,0,0,0,-0.454898,-0.187945,-9.65342,0,0,0,0,-0,0,0,0,0,0,0,0,0,0,0,0,0,0,0,0,0,0,0,0,ACC_HOLD_NOT_ELAPSED,0
15882,INIT,15882,-0.401029,-0.117316,-9.61152,0.00213053,-0.00186421,-0.01012,301.9,15876331,-0.453701,-0.100556,-9.63187,-0.00652474,-0.000798948,0.0123837,302.025,15894059,-0.483629,-0.0969652,-9.6199,-0.0066579,0.00199737,0.00199737,303.712,15886372,-0.423774,-0.135272,-9.68574,-0.00146474,0.00479369,0.00452737,300.087,15876346,34.5095,98005.8,33.8597,98008.4,34.5033,98024.6,34.6145,98026.5,0,0,0,0,0,0,-0.423774,-0.135272,-9.68574,0,0,0,0,-0,0,0,0,0,0,0,0,0,0,0,0,0,0,0,0,0,0,0,0,ACC_HOLD_NOT_ELAPSED,0
15898,INIT,15898,-0.463278,-0.0562637,-9.59596,-0.00199737,0.00346211,0.00359527,301.587,15891740,-0.48722,-0.117316,-9.58998,-0.00639159,0.000399474,0.00213053,302.087,15909432,-0.526724,-0.132878,-9.61871,-0.00452737,-0.00173105,0.000932106,303.65,15901588,-0.440533,-0.185551,-9.75996,0.00439422,-0.00292948,0.0113184,299.962,15892319,34.5141,98008,33.8644,98007.7,34.5033,98027.6,34.6192,98028.1,0,0,0,0,0,0,-0.37589,-0.0981623,-9.76355,0,0,0,0,-0,0,0,0,0,0,0,0,0,0,0,0,0,0,0,0,0,0,0,0,ACC_HOLD_NOT_ELAPSED,0
15915,INIT,15915,-0.418985,-0.162806,-9.56484,-0.00253,0.00585895,0.00559264,301.837,15908086,-0.475249,-0.141258,-9.59596,-0.00439422,-0.00545948,-0.00692422,301.962,15925898,-0.4956,-0.100556,-9.5385,-0.000399474,-0.00439422,0.0263653,303.9,15918055,-0.481235,-0.1652,-9.72764,-0.00705738,0.0015979,0.00133158,300.087,15908885,34.5188,98005,33.8738,98007.5,34.508,98026.8,34.6238,98032.1,0,0,0,0,0,0,-0.385466,-0.214281,-9.73004,0,0,0,0,-0,0,0,0,0,0,0,0,0,0,0,0,0,0,0,0,0,0,0,0,ACC_HOLD_NOT_ELAPSED,0
15931,INIT,15931,-0.456095,-0.0754174,-9.59117,-0.000932106,-0.00625843,0.00386158,301.837,15924588,-0.509965,-0.107739,-9.63786,0.00133158,-0.00199737,-0.00612527,302.15,15942209,-0.51595,-0.129287,-9.55526,-0.000399474,-0.00066579,-0.0119842,303.9,15934521,-0.379481,-0.146046,-9.65462,-0.00506001,0.0082558,-0.00106526,300.025,15925295,34.5188,98005,33.8738,98007.5,34.508,98026.8,34.6238,98032.1,0,0,0,0,0,0,-0.42138,-0.205901,-9.68933,0,0,0,0,-0,0,0,0,0,0,0,0,0,0,0,0,0,0,0,0,0,0,0,0,ACC_HOLD_NOT_ELAPSED,0
15947,INIT,15947,-0.424971,-0.0526724,-9.50498,0.00279632,-0.00133158,0.00559264,301.837,15940622,-0.548272,-0.120907,-9.52054,-0.00346211,-0.00186421,0.00213053,302.212,15958206,-0.427365,-0.172383,-9.63427,0.000399474,0.00612527,0.0165116,303.775,15950363,-0.369904,-0.138864,-9.68335,-0.00705738,-0.00812264,0.0114516,300.15,15940956,34.5188,98005,33.8738,98007.5,34.508,98026.8,34.6238,98032.1,0,0,0,0,0,0,-0.466869,-0.187945,-9.72644,0,0,0,0,-0,0,0,0,0,0,0,0,0,0,0,0,0,0,0,0,0,0,0,0,ACC_HOLD_NOT_ELAPSED,0
15963,INIT,15963,-0.442927,-0.0778116,-9.64025,-0.000932106,-0.00479369,0.00972054,301.837,15956811,-0.509965,-0.0646434,-9.68335,0.00173105,0.00186421,0.000932106,302.025,15974517,-0.454898,-0.131681,-9.62589,-0.00173105,0,-0.00492685,303.775,15966673,-0.447716,-0.0658405,-9.69053,-0.00439422,-0.00599211,-0.00372843,299.962,15957398,34.5188,98005,33.8738,98007.5,34.508,98026.8,34.6238,98032.1,0,0,0,0,0,0,-0.438139,-0.141258,-9.7444,0,0,0,0,-0,0,0,0,0,0,0,0,0,0,0,0,0,0,0,0,0,0,0,0,ACC_HOLD_NOT_ELAPSED,0
15979,INIT,15979,-0.464475,-0.124498,-9.58519,0.00798948,0.00306264,-0.00892159,301.775,15972689,-0.481235,-0.180762,-9.59835,-0.00759001,0.00279632,0.0217048,301.9,15990358,-0.519542,-0.143652,-9.64025,-0.00532632,-0.00119842,0.00705738,303.9,15982358,-0.448913,-0.0957681,-9.68574,-0.000399474,-0.00545948,0.00652474,300.025,15973215,34.5188,98005,33.8738,98007.5,34.508,98026.8,34.6238,98032.1,0,0,0,0,0,0,-0.556652,-0.150835,-9.68574,0,0,0,0,-0,0,0,0,0,0,0,0,0,0,0,0,0,0,0,0,0,0,0,0,ACC_HOLD_NOT_ELAPSED,0
15995,INIT,15995,-0.413,-0.0873884,-9.59835,-0.00226369,0.00759001,0.0106526,301.837,15988566,-0.484826,-0.0454898,-9.62828,-0.00545948,0.00146474,-0.00492685,301.962,16006200,-0.481235,-0.122104,-9.64504,-0.0041279,0.00133158,-0.00253,303.775,15998356,-0.45011,-0.107739,-9.7037,0.00625843,0.000532632,0.0066579,299.962,15989188,34.4582,98004.7,33.8128,98010.7,34.4565,98029.9,34.5727,98032.1,0,0,0,0,0,0,-0.438139,-0.0526724,-9.79348,0,0,0,0,-0,0,0,0,0,0,0,0,0,0,0,0,0,0,0,0,0,0,0,0,ACC_HOLD_NOT_ELAPSED,0
16011,INIT,16011,-0.460884,-0.129287,-9.47266,-0.00292948,0.00306264,-0.00639159,301.837,16004756,-0.496797,-0.142455,-9.578,-0.0066579,-0.00399474,0.000798948,301.9,16022510,-0.481235,-0.142455,-9.62589,-0.00865527,0.00186421,-0.00559264,303.9,16014510,-0.45849,-0.144849,-9.71687,-0.00838896,0.00492685,0.00266316,299.837,16005474,34.4582,98004.7,33.8128,98010.7,34.4565,98029.9,34.5727,98032.1,0,0,0,0,0,0,-0.398635,-0.0814029,-9.70969,0,0,0,0,-0,0,0,0,0,0,0,0,0,0,0,0,0,0,0,0,0,0,0,0,ACC_HOLD_NOT_ELAPSED,0
